trialNo,tablerow,soundrow,correct_answer,rt,status,trialaccuracy,totalaccuracy,participant,test,group,test_speaker,word1,word2,test_type,testpairs,correct_word,stream_type,training,beeptotalaccuracy,ppID,training_speaker,train_test_speaker_match,lateralization
1,40,40,2,1536,2,0,0,df2df9e7-5428-4ee3-9f05-92e6b869414e,AD_Group1_test,1,M,masihe,fanujo,seg_Unattended,masihe_fanujo,fanujo,single,AD_G1_LangA_female,12,9,F,Mismatch,both
2,38,38,2,629,1,1,1,df2df9e7-5428-4ee3-9f05-92e6b869414e,AD_Group1_test,1,M,shavuko,fanujo,seg_Unattended,shavuko_fanujo,fanujo,single,AD_G1_LangA_female,12,9,F,Mismatch,both
3,65,65,1,1403,1,1,2,df2df9e7-5428-4ee3-9f05-92e6b869414e,AD_Group1_test,1,F,biwetu,wetuxi,seg_Unattended,biwetu_wetuxi,biwetu,single,AD_G1_LangA_female,12,9,F,Match,both
4,50,50,2,1596,2,0,2,df2df9e7-5428-4ee3-9f05-92e6b869414e,AD_Group1_test,1,F,shavuko,herisha,seg_Unattended,shavuko_herisha,herisha,single,AD_G1_LangA_female,12,9,F,Match,both
5,4,4,2,1112,2,0,2,df2df9e7-5428-4ee3-9f05-92e6b869414e,AD_Group1_test,1,M,voluho,nisuda,seg_Attended,voluho_nisuda,nisuda,single,AD_G1_LangA_female,12,9,F,Mismatch,both
6,1,1,1,965,1,1,3,df2df9e7-5428-4ee3-9f05-92e6b869414e,AD_Group1_test,1,F,nisuda,xonisu,seg_Attended,nisuda_xonisu,nisuda,single,AD_G1_LangA_female,12,9,F,Match,both
7,8,8,1,2266,1,1,4,df2df9e7-5428-4ee3-9f05-92e6b869414e,AD_Group1_test,1,M,pejuxo,mipeju,seg_Attended,pejuxo_mipeju,pejuxo,single,AD_G1_LangA_female,12,9,F,Mismatch,both
8,56,56,1,1092,1,1,5,df2df9e7-5428-4ee3-9f05-92e6b869414e,AD_Group1_test,1,F,pomasi,shavuko,seg_Unattended,pomasi_shavuko,pomasi,single,AD_G1_LangA_female,12,9,F,Match,both
9,3,3,1,550,1,1,6,df2df9e7-5428-4ee3-9f05-92e6b869414e,AD_Group1_test,1,F,nisuda,luzuta,seg_Attended,nisuda_luzuta,nisuda,single,AD_G1_LangA_female,12,9,F,Match,both
10,39,39,1,945,1,1,7,df2df9e7-5428-4ee3-9f05-92e6b869414e,AD_Group1_test,1,F,fanujo,tuheri,seg_Unattended,fanujo_tuheri,fanujo,single,AD_G1_LangA_female,12,9,F,Match,both
11,47,47,2,677,2,0,7,df2df9e7-5428-4ee3-9f05-92e6b869414e,AD_Group1_test,1,F,wetuxi,vukoza,seg_Unattended,wetuxi_vukoza,vukoza,single,AD_G1_LangA_female,12,9,F,Match,both
12,43,43,2,466,2,0,7,df2df9e7-5428-4ee3-9f05-92e6b869414e,AD_Group1_test,1,F,zafanu,vukoza,seg_Unattended,zafanu_vukoza,vukoza,single,AD_G1_LangA_female,12,9,F,Match,both
13,27,27,1,1841,2,0,7,df2df9e7-5428-4ee3-9f05-92e6b869414e,AD_Group1_test,1,F,hoshife,luzuta,seg_Attended,hoshife_luzuta,hoshife,single,AD_G1_LangA_female,12,9,F,Match,both
14,36,36,1,932,2,0,7,df2df9e7-5428-4ee3-9f05-92e6b869414e,AD_Group1_test,1,F,kirewa,rewani,seg_Attended,kirewa_rewani,kirewa,single,AD_G1_LangA_female,12,9,F,Match,both
15,51,51,1,263,2,0,7,df2df9e7-5428-4ee3-9f05-92e6b869414e,AD_Group1_test,1,M,herisha,tuheri,seg_Unattended,herisha_tuheri,herisha,single,AD_G1_LangA_female,12,9,F,Mismatch,both
16,13,13,1,513,1,1,8,df2df9e7-5428-4ee3-9f05-92e6b869414e,AD_Group1_test,1,M,zutami,xonisu,seg_Attended,zutami_xonisu,zutami,single,AD_G1_LangA_female,12,9,F,Mismatch,both
17,42,42,2,289,1,1,9,df2df9e7-5428-4ee3-9f05-92e6b869414e,AD_Group1_test,1,M,dulepo,fanujo,seg_Unattended,dulepo_fanujo,fanujo,single,AD_G1_LangA_female,12,9,F,Mismatch,both
18,54,54,2,690,1,1,10,df2df9e7-5428-4ee3-9f05-92e6b869414e,AD_Group1_test,1,F,dulepo,herisha,seg_Unattended,dulepo_herisha,herisha,single,AD_G1_LangA_female,12,9,F,Match,both
19,12,12,1,451,2,0,10,df2df9e7-5428-4ee3-9f05-92e6b869414e,AD_Group1_test,1,M,pejuxo,rewani,seg_Attended,pejuxo_rewani,pejuxo,single,AD_G1_LangA_female,12,9,F,Mismatch,both
20,22,22,1,511,1,1,11,df2df9e7-5428-4ee3-9f05-92e6b869414e,AD_Group1_test,1,F,bavolu,voluho,seg_Attended,bavolu_voluho,bavolu,single,AD_G1_LangA_female,12,9,F,Match,both
21,69,69,2,1214,2,0,11,df2df9e7-5428-4ee3-9f05-92e6b869414e,AD_Group1_test,1,M,tuheri,xidule,seg_Unattended,tuheri_xidule,xidule,single,AD_G1_LangA_female,12,9,F,Mismatch,both
22,26,26,2,544,2,0,11,df2df9e7-5428-4ee3-9f05-92e6b869414e,AD_Group1_test,1,M,mipeju,hoshife,seg_Attended,mipeju_hoshife,hoshife,single,AD_G1_LangA_female,12,9,F,Mismatch,both
23,58,58,1,602,1,1,12,df2df9e7-5428-4ee3-9f05-92e6b869414e,AD_Group1_test,1,F,pomasi,masihe,seg_Unattended,pomasi_masihe,pomasi,single,AD_G1_LangA_female,12,9,F,Match,both
24,10,10,1,652,1,1,13,df2df9e7-5428-4ee3-9f05-92e6b869414e,AD_Group1_test,1,M,pejuxo,voluho,seg_Attended,pejuxo_voluho,pejuxo,single,AD_G1_LangA_female,12,9,F,Mismatch,both
25,23,23,2,368,2,0,13,df2df9e7-5428-4ee3-9f05-92e6b869414e,AD_Group1_test,1,M,shifeni,bavolu,seg_Attended,shifeni_bavolu,bavolu,single,AD_G1_LangA_female,12,9,F,Mismatch,both
26,24,24,1,1004,2,0,13,df2df9e7-5428-4ee3-9f05-92e6b869414e,AD_Group1_test,1,F,bavolu,rewani,seg_Attended,bavolu_rewani,bavolu,single,AD_G1_LangA_female,12,9,F,Match,both
27,17,17,1,1393,1,1,14,df2df9e7-5428-4ee3-9f05-92e6b869414e,AD_Group1_test,1,M,zutami,shifeni,seg_Attended,zutami_shifeni,zutami,single,AD_G1_LangA_female,12,9,F,Mismatch,both
28,2,2,2,2166,2,0,14,df2df9e7-5428-4ee3-9f05-92e6b869414e,AD_Group1_test,1,M,mipeju,nisuda,seg_Attended,mipeju_nisuda,nisuda,single,AD_G1_LangA_female,12,9,F,Mismatch,both
29,34,34,1,1104,1,1,15,df2df9e7-5428-4ee3-9f05-92e6b869414e,AD_Group1_test,1,F,kirewa,voluho,seg_Attended,kirewa_voluho,kirewa,single,AD_G1_LangA_female,12,9,F,Match,both
30,72,72,1,891,1,1,16,df2df9e7-5428-4ee3-9f05-92e6b869414e,AD_Group1_test,1,F,xidule,dulepo,seg_Unattended,xidule_dulepo,xidule,single,AD_G1_LangA_female,12,9,F,Match,both
31,41,41,1,1219,1,1,17,df2df9e7-5428-4ee3-9f05-92e6b869414e,AD_Group1_test,1,F,fanujo,wetuxi,seg_Unattended,fanujo_wetuxi,fanujo,single,AD_G1_LangA_female,12,9,F,Match,both
32,61,61,1,704,2,0,17,df2df9e7-5428-4ee3-9f05-92e6b869414e,AD_Group1_test,1,F,biwetu,zafanu,seg_Unattended,biwetu_zafanu,biwetu,single,AD_G1_LangA_female,12,9,F,Match,both
33,19,19,2,751,1,1,18,df2df9e7-5428-4ee3-9f05-92e6b869414e,AD_Group1_test,1,M,xonisu,bavolu,seg_Attended,xonisu_bavolu,bavolu,single,AD_G1_LangA_female,12,9,F,Mismatch,both
34,30,30,2,471,1,1,19,df2df9e7-5428-4ee3-9f05-92e6b869414e,AD_Group1_test,1,M,rewani,hoshife,seg_Attended,rewani_hoshife,hoshife,single,AD_G1_LangA_female,12,9,F,Mismatch,both
35,64,64,2,372,2,0,19,df2df9e7-5428-4ee3-9f05-92e6b869414e,AD_Group1_test,1,M,masihe,biwetu,seg_Unattended,masihe_biwetu,biwetu,single,AD_G1_LangA_female,12,9,F,Mismatch,both
36,32,32,1,517,1,1,20,df2df9e7-5428-4ee3-9f05-92e6b869414e,AD_Group1_test,1,F,kirewa,mipeju,seg_Attended,kirewa_mipeju,kirewa,single,AD_G1_LangA_female,12,9,F,Match,both
37,5,5,1,358,1,1,21,df2df9e7-5428-4ee3-9f05-92e6b869414e,AD_Group1_test,1,F,nisuda,shifeni,seg_Attended,nisuda_shifeni,nisuda,single,AD_G1_LangA_female,12,9,F,Match,both
38,62,62,2,508,2,0,21,df2df9e7-5428-4ee3-9f05-92e6b869414e,AD_Group1_test,1,M,shavuko,biwetu,seg_Unattended,shavuko_biwetu,biwetu,single,AD_G1_LangA_female,12,9,F,Mismatch,both
39,18,18,2,1608,2,0,21,df2df9e7-5428-4ee3-9f05-92e6b869414e,AD_Group1_test,1,F,rewani,zutami,seg_Attended,rewani_zutami,zutami,single,AD_G1_LangA_female,12,9,F,Match,both
40,9,9,2,623,2,0,21,df2df9e7-5428-4ee3-9f05-92e6b869414e,AD_Group1_test,1,F,luzuta,pejuxo,seg_Attended,luzuta_pejuxo,pejuxo,single,AD_G1_LangA_female,12,9,F,Match,both
41,21,21,2,318,2,0,21,df2df9e7-5428-4ee3-9f05-92e6b869414e,AD_Group1_test,1,M,luzuta,bavolu,seg_Attended,luzuta_bavolu,bavolu,single,AD_G1_LangA_female,12,9,F,Mismatch,both
42,53,53,1,2253,1,1,22,df2df9e7-5428-4ee3-9f05-92e6b869414e,AD_Group1_test,1,M,herisha,wetuxi,seg_Unattended,herisha_wetuxi,herisha,single,AD_G1_LangA_female,12,9,F,Mismatch,both
43,33,33,2,1067,1,1,23,df2df9e7-5428-4ee3-9f05-92e6b869414e,AD_Group1_test,1,M,luzuta,kirewa,seg_Attended,luzuta_kirewa,kirewa,single,AD_G1_LangA_female,12,9,F,Mismatch,both
44,66,66,2,1449,1,1,24,df2df9e7-5428-4ee3-9f05-92e6b869414e,AD_Group1_test,1,M,dulepo,biwetu,seg_Unattended,dulepo_biwetu,biwetu,single,AD_G1_LangA_female,12,9,F,Mismatch,both
45,35,35,2,355,1,1,25,df2df9e7-5428-4ee3-9f05-92e6b869414e,AD_Group1_test,1,M,shifeni,kirewa,seg_Attended,shifeni_kirewa,kirewa,single,AD_G1_LangA_female,12,9,F,Mismatch,both
46,31,31,2,304,1,1,26,df2df9e7-5428-4ee3-9f05-92e6b869414e,AD_Group1_test,1,M,xonisu,kirewa,seg_Attended,xonisu_kirewa,kirewa,single,AD_G1_LangA_female,12,9,F,Mismatch,both
47,52,52,2,546,2,0,26,df2df9e7-5428-4ee3-9f05-92e6b869414e,AD_Group1_test,1,F,masihe,herisha,seg_Unattended,masihe_herisha,herisha,single,AD_G1_LangA_female,12,9,F,Match,both
48,16,16,2,1172,1,1,27,df2df9e7-5428-4ee3-9f05-92e6b869414e,AD_Group1_test,1,F,voluho,zutami,seg_Attended,voluho_zutami,zutami,single,AD_G1_LangA_female,12,9,F,Match,both
49,63,63,2,259,2,0,27,df2df9e7-5428-4ee3-9f05-92e6b869414e,AD_Group1_test,1,F,biwetu,tuheri,seg_Unattended,biwetu_tuheri,biwetu,single,AD_G1_LangA_female,12,9,F,Match,both
50,59,59,2,192,2,0,27,df2df9e7-5428-4ee3-9f05-92e6b869414e,AD_Group1_test,1,M,wetuxi,pomasi,seg_Unattended,wetuxi_pomasi,pomasi,single,AD_G1_LangA_female,12,9,F,Mismatch,both
51,60,60,1,153,1,1,28,df2df9e7-5428-4ee3-9f05-92e6b869414e,AD_Group1_test,1,F,pomasi,dulepo,seg_Unattended,pomasi_dulepo,pomasi,single,AD_G1_LangA_female,12,9,F,Match,both
52,48,48,1,212,1,1,29,df2df9e7-5428-4ee3-9f05-92e6b869414e,AD_Group1_test,1,M,vukoza,dulepo,seg_Unattended,vukoza_dulepo,vukoza,single,AD_G1_LangA_female,12,9,F,Mismatch,both
53,25,25,1,220,1,1,30,df2df9e7-5428-4ee3-9f05-92e6b869414e,AD_Group1_test,1,F,hoshife,xonisu,seg_Attended,hoshife_xonisu,hoshife,single,AD_G1_LangA_female,12,9,F,Match,both
54,20,20,1,517,1,1,31,df2df9e7-5428-4ee3-9f05-92e6b869414e,AD_Group1_test,1,F,bavolu,mipeju,seg_Attended,bavolu_mipeju,bavolu,single,AD_G1_LangA_female,12,9,F,Match,both
55,15,15,1,499,2,0,31,df2df9e7-5428-4ee3-9f05-92e6b869414e,AD_Group1_test,1,M,zutami,luzuta,seg_Attended,zutami_luzuta,zutami,single,AD_G1_LangA_female,12,9,F,Mismatch,both
56,55,55,2,1687,2,0,31,df2df9e7-5428-4ee3-9f05-92e6b869414e,AD_Group1_test,1,M,zafanu,pomasi,seg_Unattended,zafanu_pomasi,pomasi,single,AD_G1_LangA_female,12,9,F,Mismatch,both
57,6,6,2,268,1,1,32,df2df9e7-5428-4ee3-9f05-92e6b869414e,AD_Group1_test,1,M,rewani,nisuda,seg_Attended,rewani_nisuda,nisuda,single,AD_G1_LangA_female,12,9,F,Mismatch,both
58,70,70,1,539,2,0,32,df2df9e7-5428-4ee3-9f05-92e6b869414e,AD_Group1_test,1,F,xidule,masihe,seg_Unattended,xidule_masihe,xidule,single,AD_G1_LangA_female,12,9,F,Match,both
59,57,57,2,119,2,0,32,df2df9e7-5428-4ee3-9f05-92e6b869414e,AD_Group1_test,1,M,tuheri,pomasi,seg_Unattended,tuheri_pomasi,pomasi,single,AD_G1_LangA_female,12,9,F,Mismatch,both
60,7,7,2,525,1,1,33,df2df9e7-5428-4ee3-9f05-92e6b869414e,AD_Group1_test,1,F,xonisu,pejuxo,seg_Attended,xonisu_pejuxo,pejuxo,single,AD_G1_LangA_female,12,9,F,Match,both
61,45,45,2,1884,2,0,33,df2df9e7-5428-4ee3-9f05-92e6b869414e,AD_Group1_test,1,F,tuheri,vukoza,seg_Unattended,tuheri_vukoza,vukoza,single,AD_G1_LangA_female,12,9,F,Match,both
62,68,68,1,128,1,1,34,df2df9e7-5428-4ee3-9f05-92e6b869414e,AD_Group1_test,1,F,xidule,shavuko,seg_Unattended,xidule_shavuko,xidule,single,AD_G1_LangA_female,12,9,F,Match,both
63,49,49,1,369,1,1,35,df2df9e7-5428-4ee3-9f05-92e6b869414e,AD_Group1_test,1,M,herisha,zafanu,seg_Unattended,herisha_zafanu,herisha,single,AD_G1_LangA_female,12,9,F,Mismatch,both
64,37,37,1,258,1,1,36,df2df9e7-5428-4ee3-9f05-92e6b869414e,AD_Group1_test,1,F,fanujo,zafanu,seg_Unattended,fanujo_zafanu,fanujo,single,AD_G1_LangA_female,12,9,F,Match,both
65,46,46,1,349,1,1,37,df2df9e7-5428-4ee3-9f05-92e6b869414e,AD_Group1_test,1,M,vukoza,masihe,seg_Unattended,vukoza_masihe,vukoza,single,AD_G1_LangA_female,12,9,F,Mismatch,both
66,71,71,2,269,1,1,38,df2df9e7-5428-4ee3-9f05-92e6b869414e,AD_Group1_test,1,F,wetuxi,xidule,seg_Unattended,wetuxi_xidule,xidule,single,AD_G1_LangA_female,12,9,F,Match,both
67,11,11,2,1157,2,0,38,df2df9e7-5428-4ee3-9f05-92e6b869414e,AD_Group1_test,1,F,shifeni,pejuxo,seg_Attended,shifeni_pejuxo,pejuxo,single,AD_G1_LangA_female,12,9,F,Match,both
68,28,28,2,1294,2,0,38,df2df9e7-5428-4ee3-9f05-92e6b869414e,AD_Group1_test,1,M,voluho,hoshife,seg_Attended,voluho_hoshife,hoshife,single,AD_G1_LangA_female,12,9,F,Mismatch,both
69,14,14,2,746,1,1,39,df2df9e7-5428-4ee3-9f05-92e6b869414e,AD_Group1_test,1,F,mipeju,zutami,seg_Attended,mipeju_zutami,zutami,single,AD_G1_LangA_female,12,9,F,Match,both
70,29,29,1,255,2,0,39,df2df9e7-5428-4ee3-9f05-92e6b869414e,AD_Group1_test,1,F,hoshife,shifeni,seg_Attended,hoshife_shifeni,hoshife,single,AD_G1_LangA_female,12,9,F,Match,both
71,67,67,2,783,1,1,40,df2df9e7-5428-4ee3-9f05-92e6b869414e,AD_Group1_test,1,M,zafanu,xidule,seg_Unattended,zafanu_xidule,xidule,single,AD_G1_LangA_female,12,9,F,Mismatch,both
72,44,44,1,282,1,1,41,df2df9e7-5428-4ee3-9f05-92e6b869414e,AD_Group1_test,1,M,vukoza,shavuko,seg_Unattended,vukoza_shavuko,vukoza,single,AD_G1_LangA_female,12,9,F,Mismatch,both
73,28,100,2,353,1,1,42,df2df9e7-5428-4ee3-9f05-92e6b869414e,AD_Group1_test,1,M,pomasi,hoshife,rec,pomasi_hoshife,hoshife,single,AD_G1_LangA_female,12,9,F,Mismatch,both
74,9,81,2,1250,1,1,43,df2df9e7-5428-4ee3-9f05-92e6b869414e,AD_Group1_test,1,F,herisha,pejuxo,rec,herisha_pejuxo,pejuxo,single,AD_G1_LangA_female,12,9,F,Match,both
75,11,83,2,421,2,0,43,df2df9e7-5428-4ee3-9f05-92e6b869414e,AD_Group1_test,1,F,biwetu,pejuxo,rec,biwetu_pejuxo,pejuxo,single,AD_G1_LangA_female,12,9,F,Match,both
76,35,107,2,265,1,1,44,df2df9e7-5428-4ee3-9f05-92e6b869414e,AD_Group1_test,1,M,biwetu,kirewa,rec,biwetu_kirewa,kirewa,single,AD_G1_LangA_female,12,9,F,Mismatch,both
77,2,74,2,268,1,1,45,df2df9e7-5428-4ee3-9f05-92e6b869414e,AD_Group1_test,1,M,vukoza,nisuda,rec,vukoza_nisuda,nisuda,single,AD_G1_LangA_female,12,9,F,Mismatch,both
78,29,101,1,341,2,0,45,df2df9e7-5428-4ee3-9f05-92e6b869414e,AD_Group1_test,1,F,hoshife,biwetu,rec,hoshife_biwetu,hoshife,single,AD_G1_LangA_female,12,9,F,Match,both
79,6,78,2,168,1,1,46,df2df9e7-5428-4ee3-9f05-92e6b869414e,AD_Group1_test,1,M,xidule,nisuda,rec,xidule_nisuda,nisuda,single,AD_G1_LangA_female,12,9,F,Mismatch,both
80,20,92,1,417,1,1,47,df2df9e7-5428-4ee3-9f05-92e6b869414e,AD_Group1_test,1,F,bavolu,vukoza,rec,bavolu_vukoza,bavolu,single,AD_G1_LangA_female,12,9,F,Match,both
81,14,86,2,202,1,1,48,df2df9e7-5428-4ee3-9f05-92e6b869414e,AD_Group1_test,1,F,vukoza,zutami,rec,vukoza_zutami,zutami,single,AD_G1_LangA_female,12,9,F,Match,both
82,13,85,1,518,1,1,49,df2df9e7-5428-4ee3-9f05-92e6b869414e,AD_Group1_test,1,M,zutami,fanujo,rec,zutami_fanujo,zutami,single,AD_G1_LangA_female,12,9,F,Mismatch,both
83,25,97,1,329,1,1,50,df2df9e7-5428-4ee3-9f05-92e6b869414e,AD_Group1_test,1,F,hoshife,fanujo,rec,hoshife_fanujo,hoshife,single,AD_G1_LangA_female,12,9,F,Match,both
84,26,98,2,1204,2,0,50,df2df9e7-5428-4ee3-9f05-92e6b869414e,AD_Group1_test,1,M,vukoza,hoshife,rec,vukoza_hoshife,hoshife,single,AD_G1_LangA_female,12,9,F,Mismatch,both
85,21,93,2,407,1,1,51,df2df9e7-5428-4ee3-9f05-92e6b869414e,AD_Group1_test,1,M,herisha,bavolu,rec,herisha_bavolu,bavolu,single,AD_G1_LangA_female,12,9,F,Mismatch,both
86,32,104,1,431,2,0,51,df2df9e7-5428-4ee3-9f05-92e6b869414e,AD_Group1_test,1,F,kirewa,vukoza,rec,kirewa_vukoza,kirewa,single,AD_G1_LangA_female,12,9,F,Match,both
87,33,105,2,321,1,1,52,df2df9e7-5428-4ee3-9f05-92e6b869414e,AD_Group1_test,1,M,herisha,kirewa,rec,herisha_kirewa,kirewa,single,AD_G1_LangA_female,12,9,F,Mismatch,both
88,23,95,2,367,2,0,52,df2df9e7-5428-4ee3-9f05-92e6b869414e,AD_Group1_test,1,M,biwetu,bavolu,rec,biwetu_bavolu,bavolu,single,AD_G1_LangA_female,12,9,F,Mismatch,both
89,8,80,1,849,1,1,53,df2df9e7-5428-4ee3-9f05-92e6b869414e,AD_Group1_test,1,M,pejuxo,vukoza,rec,pejuxo_vukoza,pejuxo,single,AD_G1_LangA_female,12,9,F,Mismatch,both
90,34,106,1,399,2,0,53,df2df9e7-5428-4ee3-9f05-92e6b869414e,AD_Group1_test,1,F,kirewa,pomasi,rec,kirewa_pomasi,kirewa,single,AD_G1_LangA_female,12,9,F,Match,both
91,1,73,1,3678,1,1,54,df2df9e7-5428-4ee3-9f05-92e6b869414e,AD_Group1_test,1,F,nisuda,fanujo,rec,nisuda_fanujo,nisuda,single,AD_G1_LangA_female,12,9,F,Match,both
92,27,99,1,1696,2,0,54,df2df9e7-5428-4ee3-9f05-92e6b869414e,AD_Group1_test,1,F,hoshife,herisha,rec,hoshife_herisha,hoshife,single,AD_G1_LangA_female,12,9,F,Match,both
93,5,77,1,793,1,1,55,df2df9e7-5428-4ee3-9f05-92e6b869414e,AD_Group1_test,1,F,nisuda,biwetu,rec,nisuda_biwetu,nisuda,single,AD_G1_LangA_female,12,9,F,Match,both
94,16,88,2,1862,1,1,56,df2df9e7-5428-4ee3-9f05-92e6b869414e,AD_Group1_test,1,F,pomasi,zutami,rec,pomasi_zutami,zutami,single,AD_G1_LangA_female,12,9,F,Match,both
95,36,108,1,444,1,1,57,df2df9e7-5428-4ee3-9f05-92e6b869414e,AD_Group1_test,1,F,kirewa,xidule,rec,kirewa_xidule,kirewa,single,AD_G1_LangA_female,12,9,F,Match,both
96,3,75,1,43,1,1,58,df2df9e7-5428-4ee3-9f05-92e6b869414e,AD_Group1_test,1,F,nisuda,herisha,rec,nisuda_herisha,nisuda,single,AD_G1_LangA_female,12,9,F,Match,both
97,17,89,1,1252,1,1,59,df2df9e7-5428-4ee3-9f05-92e6b869414e,AD_Group1_test,1,M,zutami,biwetu,rec,zutami_biwetu,zutami,single,AD_G1_LangA_female,12,9,F,Mismatch,both
98,15,87,1,349,2,0,59,df2df9e7-5428-4ee3-9f05-92e6b869414e,AD_Group1_test,1,M,zutami,herisha,rec,zutami_herisha,zutami,single,AD_G1_LangA_female,12,9,F,Mismatch,both
99,4,76,2,427,2,0,59,df2df9e7-5428-4ee3-9f05-92e6b869414e,AD_Group1_test,1,M,pomasi,nisuda,rec,pomasi_nisuda,nisuda,single,AD_G1_LangA_female,12,9,F,Mismatch,both
100,24,96,1,1929,1,1,60,df2df9e7-5428-4ee3-9f05-92e6b869414e,AD_Group1_test,1,F,bavolu,xidule,rec,bavolu_xidule,bavolu,single,AD_G1_LangA_female,12,9,F,Match,both
101,10,82,1,256,2,0,60,df2df9e7-5428-4ee3-9f05-92e6b869414e,AD_Group1_test,1,M,pejuxo,pomasi,rec,pejuxo_pomasi,pejuxo,single,AD_G1_LangA_female,12,9,F,Mismatch,both
102,18,90,2,911,1,1,61,df2df9e7-5428-4ee3-9f05-92e6b869414e,AD_Group1_test,1,F,xidule,zutami,rec,xidule_zutami,zutami,single,AD_G1_LangA_female,12,9,F,Match,both
103,7,79,2,995,2,0,61,df2df9e7-5428-4ee3-9f05-92e6b869414e,AD_Group1_test,1,F,fanujo,pejuxo,rec,fanujo_pejuxo,pejuxo,single,AD_G1_LangA_female,12,9,F,Match,both
104,22,94,1,719,2,0,61,df2df9e7-5428-4ee3-9f05-92e6b869414e,AD_Group1_test,1,F,bavolu,pomasi,rec,bavolu_pomasi,bavolu,single,AD_G1_LangA_female,12,9,F,Match,both
105,30,102,2,1740,2,0,61,df2df9e7-5428-4ee3-9f05-92e6b869414e,AD_Group1_test,1,M,xidule,hoshife,rec,xidule_hoshife,hoshife,single,AD_G1_LangA_female,12,9,F,Mismatch,both
106,19,91,2,1409,1,1,62,df2df9e7-5428-4ee3-9f05-92e6b869414e,AD_Group1_test,1,M,fanujo,bavolu,rec,fanujo_bavolu,bavolu,single,AD_G1_LangA_female,12,9,F,Mismatch,both
107,12,84,1,1626,2,0,62,df2df9e7-5428-4ee3-9f05-92e6b869414e,AD_Group1_test,1,M,pejuxo,xidule,rec,pejuxo_xidule,pejuxo,single,AD_G1_LangA_female,12,9,F,Mismatch,both
108,31,103,2,1332,1,1,63,df2df9e7-5428-4ee3-9f05-92e6b869414e,AD_Group1_test,1,M,fanujo,kirewa,rec,fanujo_kirewa,kirewa,single,AD_G1_LangA_female,12,9,F,Mismatch,both
1,69,69,2,529,2,0,0,0c1d0354-03e3-4cbe-8bb2-bb72e96ad19b,AD_Group1_test,1,M,tuheri,xidule,seg_Unattended,tuheri_xidule,xidule,single,AD_G1_LangA_female,12,2,F,Mismatch,both
2,55,55,2,406,2,0,0,0c1d0354-03e3-4cbe-8bb2-bb72e96ad19b,AD_Group1_test,1,M,zafanu,pomasi,seg_Unattended,zafanu_pomasi,pomasi,single,AD_G1_LangA_female,12,2,F,Mismatch,both
3,27,27,1,333,2,0,0,0c1d0354-03e3-4cbe-8bb2-bb72e96ad19b,AD_Group1_test,1,F,hoshife,luzuta,seg_Attended,hoshife_luzuta,hoshife,single,AD_G1_LangA_female,12,2,F,Match,both
4,64,64,2,508,2,0,0,0c1d0354-03e3-4cbe-8bb2-bb72e96ad19b,AD_Group1_test,1,M,masihe,biwetu,seg_Unattended,masihe_biwetu,biwetu,single,AD_G1_LangA_female,12,2,F,Mismatch,both
5,18,18,2,411,1,1,1,0c1d0354-03e3-4cbe-8bb2-bb72e96ad19b,AD_Group1_test,1,F,rewani,zutami,seg_Attended,rewani_zutami,zutami,single,AD_G1_LangA_female,12,2,F,Match,both
6,50,50,2,63,1,1,2,0c1d0354-03e3-4cbe-8bb2-bb72e96ad19b,AD_Group1_test,1,F,shavuko,herisha,seg_Unattended,shavuko_herisha,herisha,single,AD_G1_LangA_female,12,2,F,Match,both
7,5,5,1,371,1,1,3,0c1d0354-03e3-4cbe-8bb2-bb72e96ad19b,AD_Group1_test,1,F,nisuda,shifeni,seg_Attended,nisuda_shifeni,nisuda,single,AD_G1_LangA_female,12,2,F,Match,both
8,25,25,1,1513,2,0,3,0c1d0354-03e3-4cbe-8bb2-bb72e96ad19b,AD_Group1_test,1,F,hoshife,xonisu,seg_Attended,hoshife_xonisu,hoshife,single,AD_G1_LangA_female,12,2,F,Match,both
9,62,62,2,930,1,1,4,0c1d0354-03e3-4cbe-8bb2-bb72e96ad19b,AD_Group1_test,1,M,shavuko,biwetu,seg_Unattended,shavuko_biwetu,biwetu,single,AD_G1_LangA_female,12,2,F,Mismatch,both
10,67,67,2,93,2,0,4,0c1d0354-03e3-4cbe-8bb2-bb72e96ad19b,AD_Group1_test,1,M,zafanu,xidule,seg_Unattended,zafanu_xidule,xidule,single,AD_G1_LangA_female,12,2,F,Mismatch,both
11,40,40,2,736,2,0,4,0c1d0354-03e3-4cbe-8bb2-bb72e96ad19b,AD_Group1_test,1,M,masihe,fanujo,seg_Unattended,masihe_fanujo,fanujo,single,AD_G1_LangA_female,12,2,F,Mismatch,both
12,63,63,2,1530,2,0,4,0c1d0354-03e3-4cbe-8bb2-bb72e96ad19b,AD_Group1_test,1,F,biwetu,tuheri,seg_Unattended,biwetu_tuheri,biwetu,single,AD_G1_LangA_female,12,2,F,Match,both
13,45,45,2,586,1,1,5,0c1d0354-03e3-4cbe-8bb2-bb72e96ad19b,AD_Group1_test,1,F,tuheri,vukoza,seg_Unattended,tuheri_vukoza,vukoza,single,AD_G1_LangA_female,12,2,F,Match,both
14,39,39,1,523,1,1,6,0c1d0354-03e3-4cbe-8bb2-bb72e96ad19b,AD_Group1_test,1,F,fanujo,tuheri,seg_Unattended,fanujo_tuheri,fanujo,single,AD_G1_LangA_female,12,2,F,Match,both
15,52,52,2,340,2,0,6,0c1d0354-03e3-4cbe-8bb2-bb72e96ad19b,AD_Group1_test,1,F,masihe,herisha,seg_Unattended,masihe_herisha,herisha,single,AD_G1_LangA_female,12,2,F,Match,both
16,7,7,2,1230,2,0,6,0c1d0354-03e3-4cbe-8bb2-bb72e96ad19b,AD_Group1_test,1,F,xonisu,pejuxo,seg_Attended,xonisu_pejuxo,pejuxo,single,AD_G1_LangA_female,12,2,F,Match,both
17,68,68,1,1347,1,1,7,0c1d0354-03e3-4cbe-8bb2-bb72e96ad19b,AD_Group1_test,1,F,xidule,shavuko,seg_Unattended,xidule_shavuko,xidule,single,AD_G1_LangA_female,12,2,F,Match,both
18,28,28,2,475,2,0,7,0c1d0354-03e3-4cbe-8bb2-bb72e96ad19b,AD_Group1_test,1,M,voluho,hoshife,seg_Attended,voluho_hoshife,hoshife,single,AD_G1_LangA_female,12,2,F,Mismatch,both
19,23,23,2,874,1,1,8,0c1d0354-03e3-4cbe-8bb2-bb72e96ad19b,AD_Group1_test,1,M,shifeni,bavolu,seg_Attended,shifeni_bavolu,bavolu,single,AD_G1_LangA_female,12,2,F,Mismatch,both
20,57,57,2,232,2,0,8,0c1d0354-03e3-4cbe-8bb2-bb72e96ad19b,AD_Group1_test,1,M,tuheri,pomasi,seg_Unattended,tuheri_pomasi,pomasi,single,AD_G1_LangA_female,12,2,F,Mismatch,both
21,47,47,2,355,1,1,9,0c1d0354-03e3-4cbe-8bb2-bb72e96ad19b,AD_Group1_test,1,F,wetuxi,vukoza,seg_Unattended,wetuxi_vukoza,vukoza,single,AD_G1_LangA_female,12,2,F,Match,both
22,13,13,1,1128,1,1,10,0c1d0354-03e3-4cbe-8bb2-bb72e96ad19b,AD_Group1_test,1,M,zutami,xonisu,seg_Attended,zutami_xonisu,zutami,single,AD_G1_LangA_female,12,2,F,Mismatch,both
23,38,38,2,2223,2,0,10,0c1d0354-03e3-4cbe-8bb2-bb72e96ad19b,AD_Group1_test,1,M,shavuko,fanujo,seg_Unattended,shavuko_fanujo,fanujo,single,AD_G1_LangA_female,12,2,F,Mismatch,both
24,58,58,1,1075,2,0,10,0c1d0354-03e3-4cbe-8bb2-bb72e96ad19b,AD_Group1_test,1,F,pomasi,masihe,seg_Unattended,pomasi_masihe,pomasi,single,AD_G1_LangA_female,12,2,F,Match,both
25,1,1,1,260,1,1,11,0c1d0354-03e3-4cbe-8bb2-bb72e96ad19b,AD_Group1_test,1,F,nisuda,xonisu,seg_Attended,nisuda_xonisu,nisuda,single,AD_G1_LangA_female,12,2,F,Match,both
26,26,26,2,157,2,0,11,0c1d0354-03e3-4cbe-8bb2-bb72e96ad19b,AD_Group1_test,1,M,mipeju,hoshife,seg_Attended,mipeju_hoshife,hoshife,single,AD_G1_LangA_female,12,2,F,Mismatch,both
27,37,37,1,456,2,0,11,0c1d0354-03e3-4cbe-8bb2-bb72e96ad19b,AD_Group1_test,1,F,fanujo,zafanu,seg_Unattended,fanujo_zafanu,fanujo,single,AD_G1_LangA_female,12,2,F,Match,both
28,14,14,2,1129,1,1,12,0c1d0354-03e3-4cbe-8bb2-bb72e96ad19b,AD_Group1_test,1,F,mipeju,zutami,seg_Attended,mipeju_zutami,zutami,single,AD_G1_LangA_female,12,2,F,Match,both
29,19,19,2,375,2,0,12,0c1d0354-03e3-4cbe-8bb2-bb72e96ad19b,AD_Group1_test,1,M,xonisu,bavolu,seg_Attended,xonisu_bavolu,bavolu,single,AD_G1_LangA_female,12,2,F,Mismatch,both
30,24,24,1,500,2,0,12,0c1d0354-03e3-4cbe-8bb2-bb72e96ad19b,AD_Group1_test,1,F,bavolu,rewani,seg_Attended,bavolu_rewani,bavolu,single,AD_G1_LangA_female,12,2,F,Match,both
31,16,16,2,224,1,1,13,0c1d0354-03e3-4cbe-8bb2-bb72e96ad19b,AD_Group1_test,1,F,voluho,zutami,seg_Attended,voluho_zutami,zutami,single,AD_G1_LangA_female,12,2,F,Match,both
32,9,9,2,208,2,0,13,0c1d0354-03e3-4cbe-8bb2-bb72e96ad19b,AD_Group1_test,1,F,luzuta,pejuxo,seg_Attended,luzuta_pejuxo,pejuxo,single,AD_G1_LangA_female,12,2,F,Match,both
33,15,15,1,1744,2,0,13,0c1d0354-03e3-4cbe-8bb2-bb72e96ad19b,AD_Group1_test,1,M,zutami,luzuta,seg_Attended,zutami_luzuta,zutami,single,AD_G1_LangA_female,12,2,F,Mismatch,both
34,49,49,1,1400,2,0,13,0c1d0354-03e3-4cbe-8bb2-bb72e96ad19b,AD_Group1_test,1,M,herisha,zafanu,seg_Unattended,herisha_zafanu,herisha,single,AD_G1_LangA_female,12,2,F,Mismatch,both
35,29,29,1,241,2,0,13,0c1d0354-03e3-4cbe-8bb2-bb72e96ad19b,AD_Group1_test,1,F,hoshife,shifeni,seg_Attended,hoshife_shifeni,hoshife,single,AD_G1_LangA_female,12,2,F,Match,both
36,60,60,1,1941,2,0,13,0c1d0354-03e3-4cbe-8bb2-bb72e96ad19b,AD_Group1_test,1,F,pomasi,dulepo,seg_Unattended,pomasi_dulepo,pomasi,single,AD_G1_LangA_female,12,2,F,Match,both
37,22,22,1,2100,1,1,14,0c1d0354-03e3-4cbe-8bb2-bb72e96ad19b,AD_Group1_test,1,F,bavolu,voluho,seg_Attended,bavolu_voluho,bavolu,single,AD_G1_LangA_female,12,2,F,Match,both
38,35,35,2,699,1,1,15,0c1d0354-03e3-4cbe-8bb2-bb72e96ad19b,AD_Group1_test,1,M,shifeni,kirewa,seg_Attended,shifeni_kirewa,kirewa,single,AD_G1_LangA_female,12,2,F,Mismatch,both
39,30,30,2,451,2,0,15,0c1d0354-03e3-4cbe-8bb2-bb72e96ad19b,AD_Group1_test,1,M,rewani,hoshife,seg_Attended,rewani_hoshife,hoshife,single,AD_G1_LangA_female,12,2,F,Mismatch,both
40,54,54,2,503,1,1,16,0c1d0354-03e3-4cbe-8bb2-bb72e96ad19b,AD_Group1_test,1,F,dulepo,herisha,seg_Unattended,dulepo_herisha,herisha,single,AD_G1_LangA_female,12,2,F,Match,both
41,71,71,2,289,2,0,16,0c1d0354-03e3-4cbe-8bb2-bb72e96ad19b,AD_Group1_test,1,F,wetuxi,xidule,seg_Unattended,wetuxi_xidule,xidule,single,AD_G1_LangA_female,12,2,F,Match,both
42,10,10,1,159,2,0,16,0c1d0354-03e3-4cbe-8bb2-bb72e96ad19b,AD_Group1_test,1,M,pejuxo,voluho,seg_Attended,pejuxo_voluho,pejuxo,single,AD_G1_LangA_female,12,2,F,Mismatch,both
43,21,21,2,68,2,0,16,0c1d0354-03e3-4cbe-8bb2-bb72e96ad19b,AD_Group1_test,1,M,luzuta,bavolu,seg_Attended,luzuta_bavolu,bavolu,single,AD_G1_LangA_female,12,2,F,Mismatch,both
44,51,51,1,613,2,0,16,0c1d0354-03e3-4cbe-8bb2-bb72e96ad19b,AD_Group1_test,1,M,herisha,tuheri,seg_Unattended,herisha_tuheri,herisha,single,AD_G1_LangA_female,12,2,F,Mismatch,both
45,41,41,1,1888,1,1,17,0c1d0354-03e3-4cbe-8bb2-bb72e96ad19b,AD_Group1_test,1,F,fanujo,wetuxi,seg_Unattended,fanujo_wetuxi,fanujo,single,AD_G1_LangA_female,12,2,F,Match,both
46,42,42,2,178,1,1,18,0c1d0354-03e3-4cbe-8bb2-bb72e96ad19b,AD_Group1_test,1,M,dulepo,fanujo,seg_Unattended,dulepo_fanujo,fanujo,single,AD_G1_LangA_female,12,2,F,Mismatch,both
47,44,44,1,318,2,0,18,0c1d0354-03e3-4cbe-8bb2-bb72e96ad19b,AD_Group1_test,1,M,vukoza,shavuko,seg_Unattended,vukoza_shavuko,vukoza,single,AD_G1_LangA_female,12,2,F,Mismatch,both
48,11,11,2,1037,1,1,19,0c1d0354-03e3-4cbe-8bb2-bb72e96ad19b,AD_Group1_test,1,F,shifeni,pejuxo,seg_Attended,shifeni_pejuxo,pejuxo,single,AD_G1_LangA_female,12,2,F,Match,both
49,31,31,2,274,1,1,20,0c1d0354-03e3-4cbe-8bb2-bb72e96ad19b,AD_Group1_test,1,M,xonisu,kirewa,seg_Attended,xonisu_kirewa,kirewa,single,AD_G1_LangA_female,12,2,F,Mismatch,both
50,36,36,1,262,1,1,21,0c1d0354-03e3-4cbe-8bb2-bb72e96ad19b,AD_Group1_test,1,F,kirewa,rewani,seg_Attended,kirewa_rewani,kirewa,single,AD_G1_LangA_female,12,2,F,Match,both
51,6,6,2,2427,2,0,21,0c1d0354-03e3-4cbe-8bb2-bb72e96ad19b,AD_Group1_test,1,M,rewani,nisuda,seg_Attended,rewani_nisuda,nisuda,single,AD_G1_LangA_female,12,2,F,Mismatch,both
52,34,34,1,181,1,1,22,0c1d0354-03e3-4cbe-8bb2-bb72e96ad19b,AD_Group1_test,1,F,kirewa,voluho,seg_Attended,kirewa_voluho,kirewa,single,AD_G1_LangA_female,12,2,F,Match,both
53,20,20,1,250,2,0,22,0c1d0354-03e3-4cbe-8bb2-bb72e96ad19b,AD_Group1_test,1,F,bavolu,mipeju,seg_Attended,bavolu_mipeju,bavolu,single,AD_G1_LangA_female,12,2,F,Match,both
54,3,3,1,3399,2,0,22,0c1d0354-03e3-4cbe-8bb2-bb72e96ad19b,AD_Group1_test,1,F,nisuda,luzuta,seg_Attended,nisuda_luzuta,nisuda,single,AD_G1_LangA_female,12,2,F,Match,both
55,66,66,2,327,1,1,23,0c1d0354-03e3-4cbe-8bb2-bb72e96ad19b,AD_Group1_test,1,M,dulepo,biwetu,seg_Unattended,dulepo_biwetu,biwetu,single,AD_G1_LangA_female,12,2,F,Mismatch,both
56,56,56,1,560,1,1,24,0c1d0354-03e3-4cbe-8bb2-bb72e96ad19b,AD_Group1_test,1,F,pomasi,shavuko,seg_Unattended,pomasi_shavuko,pomasi,single,AD_G1_LangA_female,12,2,F,Match,both
57,59,59,2,469,1,1,25,0c1d0354-03e3-4cbe-8bb2-bb72e96ad19b,AD_Group1_test,1,M,wetuxi,pomasi,seg_Unattended,wetuxi_pomasi,pomasi,single,AD_G1_LangA_female,12,2,F,Mismatch,both
58,4,4,2,417,1,1,26,0c1d0354-03e3-4cbe-8bb2-bb72e96ad19b,AD_Group1_test,1,M,voluho,nisuda,seg_Attended,voluho_nisuda,nisuda,single,AD_G1_LangA_female,12,2,F,Mismatch,both
59,12,12,1,151,2,0,26,0c1d0354-03e3-4cbe-8bb2-bb72e96ad19b,AD_Group1_test,1,M,pejuxo,rewani,seg_Attended,pejuxo_rewani,pejuxo,single,AD_G1_LangA_female,12,2,F,Mismatch,both
60,48,48,1,346,1,1,27,0c1d0354-03e3-4cbe-8bb2-bb72e96ad19b,AD_Group1_test,1,M,vukoza,dulepo,seg_Unattended,vukoza_dulepo,vukoza,single,AD_G1_LangA_female,12,2,F,Mismatch,both
61,32,32,1,136,1,1,28,0c1d0354-03e3-4cbe-8bb2-bb72e96ad19b,AD_Group1_test,1,F,kirewa,mipeju,seg_Attended,kirewa_mipeju,kirewa,single,AD_G1_LangA_female,12,2,F,Match,both
62,8,8,1,636,2,0,28,0c1d0354-03e3-4cbe-8bb2-bb72e96ad19b,AD_Group1_test,1,M,pejuxo,mipeju,seg_Attended,pejuxo_mipeju,pejuxo,single,AD_G1_LangA_female,12,2,F,Mismatch,both
63,17,17,1,483,1,1,29,0c1d0354-03e3-4cbe-8bb2-bb72e96ad19b,AD_Group1_test,1,M,zutami,shifeni,seg_Attended,zutami_shifeni,zutami,single,AD_G1_LangA_female,12,2,F,Mismatch,both
64,43,43,2,341,2,0,29,0c1d0354-03e3-4cbe-8bb2-bb72e96ad19b,AD_Group1_test,1,F,zafanu,vukoza,seg_Unattended,zafanu_vukoza,vukoza,single,AD_G1_LangA_female,12,2,F,Match,both
65,53,53,1,244,2,0,29,0c1d0354-03e3-4cbe-8bb2-bb72e96ad19b,AD_Group1_test,1,M,herisha,wetuxi,seg_Unattended,herisha_wetuxi,herisha,single,AD_G1_LangA_female,12,2,F,Mismatch,both
66,65,65,1,1090,2,0,29,0c1d0354-03e3-4cbe-8bb2-bb72e96ad19b,AD_Group1_test,1,F,biwetu,wetuxi,seg_Unattended,biwetu_wetuxi,biwetu,single,AD_G1_LangA_female,12,2,F,Match,both
67,72,72,1,589,1,1,30,0c1d0354-03e3-4cbe-8bb2-bb72e96ad19b,AD_Group1_test,1,F,xidule,dulepo,seg_Unattended,xidule_dulepo,xidule,single,AD_G1_LangA_female,12,2,F,Match,both
68,46,46,1,389,2,0,30,0c1d0354-03e3-4cbe-8bb2-bb72e96ad19b,AD_Group1_test,1,M,vukoza,masihe,seg_Unattended,vukoza_masihe,vukoza,single,AD_G1_LangA_female,12,2,F,Mismatch,both
69,33,33,2,2445,2,0,30,0c1d0354-03e3-4cbe-8bb2-bb72e96ad19b,AD_Group1_test,1,M,luzuta,kirewa,seg_Attended,luzuta_kirewa,kirewa,single,AD_G1_LangA_female,12,2,F,Mismatch,both
70,2,2,2,302,1,1,31,0c1d0354-03e3-4cbe-8bb2-bb72e96ad19b,AD_Group1_test,1,M,mipeju,nisuda,seg_Attended,mipeju_nisuda,nisuda,single,AD_G1_LangA_female,12,2,F,Mismatch,both
71,70,70,1,1169,2,0,31,0c1d0354-03e3-4cbe-8bb2-bb72e96ad19b,AD_Group1_test,1,F,xidule,masihe,seg_Unattended,xidule_masihe,xidule,single,AD_G1_LangA_female,12,2,F,Match,both
72,61,61,1,702,2,0,31,0c1d0354-03e3-4cbe-8bb2-bb72e96ad19b,AD_Group1_test,1,F,biwetu,zafanu,seg_Unattended,biwetu_zafanu,biwetu,single,AD_G1_LangA_female,12,2,F,Match,both
73,26,98,2,2027,2,0,31,0c1d0354-03e3-4cbe-8bb2-bb72e96ad19b,AD_Group1_test,1,M,vukoza,hoshife,rec,vukoza_hoshife,hoshife,single,AD_G1_LangA_female,12,2,F,Mismatch,both
74,4,76,2,193,1,1,32,0c1d0354-03e3-4cbe-8bb2-bb72e96ad19b,AD_Group1_test,1,M,pomasi,nisuda,rec,pomasi_nisuda,nisuda,single,AD_G1_LangA_female,12,2,F,Mismatch,both
75,33,105,2,185,1,1,33,0c1d0354-03e3-4cbe-8bb2-bb72e96ad19b,AD_Group1_test,1,M,herisha,kirewa,rec,herisha_kirewa,kirewa,single,AD_G1_LangA_female,12,2,F,Mismatch,both
76,13,85,1,112,1,1,34,0c1d0354-03e3-4cbe-8bb2-bb72e96ad19b,AD_Group1_test,1,M,zutami,fanujo,rec,zutami_fanujo,zutami,single,AD_G1_LangA_female,12,2,F,Mismatch,both
77,15,87,1,2912,1,1,35,0c1d0354-03e3-4cbe-8bb2-bb72e96ad19b,AD_Group1_test,1,M,zutami,herisha,rec,zutami_herisha,zutami,single,AD_G1_LangA_female,12,2,F,Mismatch,both
78,3,75,1,236,1,1,36,0c1d0354-03e3-4cbe-8bb2-bb72e96ad19b,AD_Group1_test,1,F,nisuda,herisha,rec,nisuda_herisha,nisuda,single,AD_G1_LangA_female,12,2,F,Match,both
79,34,106,1,69,1,1,37,0c1d0354-03e3-4cbe-8bb2-bb72e96ad19b,AD_Group1_test,1,F,kirewa,pomasi,rec,kirewa_pomasi,kirewa,single,AD_G1_LangA_female,12,2,F,Match,both
80,36,108,1,412,1,1,38,0c1d0354-03e3-4cbe-8bb2-bb72e96ad19b,AD_Group1_test,1,F,kirewa,xidule,rec,kirewa_xidule,kirewa,single,AD_G1_LangA_female,12,2,F,Match,both
81,35,107,2,293,1,1,39,0c1d0354-03e3-4cbe-8bb2-bb72e96ad19b,AD_Group1_test,1,M,biwetu,kirewa,rec,biwetu_kirewa,kirewa,single,AD_G1_LangA_female,12,2,F,Mismatch,both
82,25,97,1,296,2,0,39,0c1d0354-03e3-4cbe-8bb2-bb72e96ad19b,AD_Group1_test,1,F,hoshife,fanujo,rec,hoshife_fanujo,hoshife,single,AD_G1_LangA_female,12,2,F,Match,both
83,1,73,1,179,1,1,40,0c1d0354-03e3-4cbe-8bb2-bb72e96ad19b,AD_Group1_test,1,F,nisuda,fanujo,rec,nisuda_fanujo,nisuda,single,AD_G1_LangA_female,12,2,F,Match,both
84,30,102,2,1712,1,1,41,0c1d0354-03e3-4cbe-8bb2-bb72e96ad19b,AD_Group1_test,1,M,xidule,hoshife,rec,xidule_hoshife,hoshife,single,AD_G1_LangA_female,12,2,F,Mismatch,both
85,6,78,2,208,1,1,42,0c1d0354-03e3-4cbe-8bb2-bb72e96ad19b,AD_Group1_test,1,M,xidule,nisuda,rec,xidule_nisuda,nisuda,single,AD_G1_LangA_female,12,2,F,Mismatch,both
86,8,80,1,349,2,0,42,0c1d0354-03e3-4cbe-8bb2-bb72e96ad19b,AD_Group1_test,1,M,pejuxo,vukoza,rec,pejuxo_vukoza,pejuxo,single,AD_G1_LangA_female,12,2,F,Mismatch,both
87,31,103,2,191,1,1,43,0c1d0354-03e3-4cbe-8bb2-bb72e96ad19b,AD_Group1_test,1,M,fanujo,kirewa,rec,fanujo_kirewa,kirewa,single,AD_G1_LangA_female,12,2,F,Mismatch,both
88,23,95,2,1186,2,0,43,0c1d0354-03e3-4cbe-8bb2-bb72e96ad19b,AD_Group1_test,1,M,biwetu,bavolu,rec,biwetu_bavolu,bavolu,single,AD_G1_LangA_female,12,2,F,Mismatch,both
89,22,94,1,1692,2,0,43,0c1d0354-03e3-4cbe-8bb2-bb72e96ad19b,AD_Group1_test,1,F,bavolu,pomasi,rec,bavolu_pomasi,bavolu,single,AD_G1_LangA_female,12,2,F,Match,both
90,17,89,1,1832,1,1,44,0c1d0354-03e3-4cbe-8bb2-bb72e96ad19b,AD_Group1_test,1,M,zutami,biwetu,rec,zutami_biwetu,zutami,single,AD_G1_LangA_female,12,2,F,Mismatch,both
91,19,91,2,1421,2,0,44,0c1d0354-03e3-4cbe-8bb2-bb72e96ad19b,AD_Group1_test,1,M,fanujo,bavolu,rec,fanujo_bavolu,bavolu,single,AD_G1_LangA_female,12,2,F,Mismatch,both
92,29,101,1,2381,1,1,45,0c1d0354-03e3-4cbe-8bb2-bb72e96ad19b,AD_Group1_test,1,F,hoshife,biwetu,rec,hoshife_biwetu,hoshife,single,AD_G1_LangA_female,12,2,F,Match,both
93,9,81,2,1211,1,1,46,0c1d0354-03e3-4cbe-8bb2-bb72e96ad19b,AD_Group1_test,1,F,herisha,pejuxo,rec,herisha_pejuxo,pejuxo,single,AD_G1_LangA_female,12,2,F,Match,both
94,21,93,2,2001,1,1,47,0c1d0354-03e3-4cbe-8bb2-bb72e96ad19b,AD_Group1_test,1,M,herisha,bavolu,rec,herisha_bavolu,bavolu,single,AD_G1_LangA_female,12,2,F,Mismatch,both
95,20,92,1,3298,2,0,47,0c1d0354-03e3-4cbe-8bb2-bb72e96ad19b,AD_Group1_test,1,F,bavolu,vukoza,rec,bavolu_vukoza,bavolu,single,AD_G1_LangA_female,12,2,F,Match,both
96,24,96,1,345,1,1,48,0c1d0354-03e3-4cbe-8bb2-bb72e96ad19b,AD_Group1_test,1,F,bavolu,xidule,rec,bavolu_xidule,bavolu,single,AD_G1_LangA_female,12,2,F,Match,both
97,16,88,2,2633,1,1,49,0c1d0354-03e3-4cbe-8bb2-bb72e96ad19b,AD_Group1_test,1,F,pomasi,zutami,rec,pomasi_zutami,zutami,single,AD_G1_LangA_female,12,2,F,Match,both
98,32,104,1,271,1,1,50,0c1d0354-03e3-4cbe-8bb2-bb72e96ad19b,AD_Group1_test,1,F,kirewa,vukoza,rec,kirewa_vukoza,kirewa,single,AD_G1_LangA_female,12,2,F,Match,both
99,5,77,1,65,1,1,51,0c1d0354-03e3-4cbe-8bb2-bb72e96ad19b,AD_Group1_test,1,F,nisuda,biwetu,rec,nisuda_biwetu,nisuda,single,AD_G1_LangA_female,12,2,F,Match,both
100,18,90,2,51,1,1,52,0c1d0354-03e3-4cbe-8bb2-bb72e96ad19b,AD_Group1_test,1,F,xidule,zutami,rec,xidule_zutami,zutami,single,AD_G1_LangA_female,12,2,F,Match,both
101,14,86,2,131,1,1,53,0c1d0354-03e3-4cbe-8bb2-bb72e96ad19b,AD_Group1_test,1,F,vukoza,zutami,rec,vukoza_zutami,zutami,single,AD_G1_LangA_female,12,2,F,Match,both
102,10,82,1,64,2,0,53,0c1d0354-03e3-4cbe-8bb2-bb72e96ad19b,AD_Group1_test,1,M,pejuxo,pomasi,rec,pejuxo_pomasi,pejuxo,single,AD_G1_LangA_female,12,2,F,Mismatch,both
103,28,100,2,649,2,0,53,0c1d0354-03e3-4cbe-8bb2-bb72e96ad19b,AD_Group1_test,1,M,pomasi,hoshife,rec,pomasi_hoshife,hoshife,single,AD_G1_LangA_female,12,2,F,Mismatch,both
104,12,84,1,1815,2,0,53,0c1d0354-03e3-4cbe-8bb2-bb72e96ad19b,AD_Group1_test,1,M,pejuxo,xidule,rec,pejuxo_xidule,pejuxo,single,AD_G1_LangA_female,12,2,F,Mismatch,both
105,7,79,2,654,2,0,53,0c1d0354-03e3-4cbe-8bb2-bb72e96ad19b,AD_Group1_test,1,F,fanujo,pejuxo,rec,fanujo_pejuxo,pejuxo,single,AD_G1_LangA_female,12,2,F,Match,both
106,11,83,2,373,2,0,53,0c1d0354-03e3-4cbe-8bb2-bb72e96ad19b,AD_Group1_test,1,F,biwetu,pejuxo,rec,biwetu_pejuxo,pejuxo,single,AD_G1_LangA_female,12,2,F,Match,both
107,2,74,2,404,1,1,54,0c1d0354-03e3-4cbe-8bb2-bb72e96ad19b,AD_Group1_test,1,M,vukoza,nisuda,rec,vukoza_nisuda,nisuda,single,AD_G1_LangA_female,12,2,F,Mismatch,both
108,27,99,1,921,1,1,55,0c1d0354-03e3-4cbe-8bb2-bb72e96ad19b,AD_Group1_test,1,F,hoshife,herisha,rec,hoshife_herisha,hoshife,single,AD_G1_LangA_female,12,2,F,Match,both
1,48,48,1,855,1,1,1,13a87eae-d3d1-4edd-bf66-a5005e8d1d04,AD_Group1_test,1,M,vukoza,dulepo,seg_Unattended,vukoza_dulepo,vukoza,single,AD_G1_LangA_female,12,8,F,Mismatch,both
2,44,44,1,1295,1,1,2,13a87eae-d3d1-4edd-bf66-a5005e8d1d04,AD_Group1_test,1,M,vukoza,shavuko,seg_Unattended,vukoza_shavuko,vukoza,single,AD_G1_LangA_female,12,8,F,Mismatch,both
3,34,34,1,618,1,1,3,13a87eae-d3d1-4edd-bf66-a5005e8d1d04,AD_Group1_test,1,F,kirewa,voluho,seg_Attended,kirewa_voluho,kirewa,single,AD_G1_LangA_female,12,8,F,Match,both
4,4,4,2,724,1,1,4,13a87eae-d3d1-4edd-bf66-a5005e8d1d04,AD_Group1_test,1,M,voluho,nisuda,seg_Attended,voluho_nisuda,nisuda,single,AD_G1_LangA_female,12,8,F,Mismatch,both
5,62,62,2,2366,2,0,4,13a87eae-d3d1-4edd-bf66-a5005e8d1d04,AD_Group1_test,1,M,shavuko,biwetu,seg_Unattended,shavuko_biwetu,biwetu,single,AD_G1_LangA_female,12,8,F,Mismatch,both
6,55,55,2,617,2,0,4,13a87eae-d3d1-4edd-bf66-a5005e8d1d04,AD_Group1_test,1,M,zafanu,pomasi,seg_Unattended,zafanu_pomasi,pomasi,single,AD_G1_LangA_female,12,8,F,Mismatch,both
7,10,10,1,1728,2,0,4,13a87eae-d3d1-4edd-bf66-a5005e8d1d04,AD_Group1_test,1,M,pejuxo,voluho,seg_Attended,pejuxo_voluho,pejuxo,single,AD_G1_LangA_female,12,8,F,Mismatch,both
8,54,54,2,1269,2,0,4,13a87eae-d3d1-4edd-bf66-a5005e8d1d04,AD_Group1_test,1,F,dulepo,herisha,seg_Unattended,dulepo_herisha,herisha,single,AD_G1_LangA_female,12,8,F,Match,both
9,5,5,1,438,1,1,5,13a87eae-d3d1-4edd-bf66-a5005e8d1d04,AD_Group1_test,1,F,nisuda,shifeni,seg_Attended,nisuda_shifeni,nisuda,single,AD_G1_LangA_female,12,8,F,Match,both
10,31,31,2,452,1,1,6,13a87eae-d3d1-4edd-bf66-a5005e8d1d04,AD_Group1_test,1,M,xonisu,kirewa,seg_Attended,xonisu_kirewa,kirewa,single,AD_G1_LangA_female,12,8,F,Mismatch,both
11,64,64,2,1040,2,0,6,13a87eae-d3d1-4edd-bf66-a5005e8d1d04,AD_Group1_test,1,M,masihe,biwetu,seg_Unattended,masihe_biwetu,biwetu,single,AD_G1_LangA_female,12,8,F,Mismatch,both
12,67,67,2,472,2,0,6,13a87eae-d3d1-4edd-bf66-a5005e8d1d04,AD_Group1_test,1,M,zafanu,xidule,seg_Unattended,zafanu_xidule,xidule,single,AD_G1_LangA_female,12,8,F,Mismatch,both
13,59,59,2,1790,1,1,7,13a87eae-d3d1-4edd-bf66-a5005e8d1d04,AD_Group1_test,1,M,wetuxi,pomasi,seg_Unattended,wetuxi_pomasi,pomasi,single,AD_G1_LangA_female,12,8,F,Mismatch,both
14,72,72,1,580,1,1,8,13a87eae-d3d1-4edd-bf66-a5005e8d1d04,AD_Group1_test,1,F,xidule,dulepo,seg_Unattended,xidule_dulepo,xidule,single,AD_G1_LangA_female,12,8,F,Match,both
15,63,63,2,516,1,1,9,13a87eae-d3d1-4edd-bf66-a5005e8d1d04,AD_Group1_test,1,F,biwetu,tuheri,seg_Unattended,biwetu_tuheri,biwetu,single,AD_G1_LangA_female,12,8,F,Match,both
16,58,58,1,1482,1,1,10,13a87eae-d3d1-4edd-bf66-a5005e8d1d04,AD_Group1_test,1,F,pomasi,masihe,seg_Unattended,pomasi_masihe,pomasi,single,AD_G1_LangA_female,12,8,F,Match,both
17,18,18,2,749,2,0,10,13a87eae-d3d1-4edd-bf66-a5005e8d1d04,AD_Group1_test,1,F,rewani,zutami,seg_Attended,rewani_zutami,zutami,single,AD_G1_LangA_female,12,8,F,Match,both
18,25,25,1,1502,2,0,10,13a87eae-d3d1-4edd-bf66-a5005e8d1d04,AD_Group1_test,1,F,hoshife,xonisu,seg_Attended,hoshife_xonisu,hoshife,single,AD_G1_LangA_female,12,8,F,Match,both
19,51,51,1,2341,1,1,11,13a87eae-d3d1-4edd-bf66-a5005e8d1d04,AD_Group1_test,1,M,herisha,tuheri,seg_Unattended,herisha_tuheri,herisha,single,AD_G1_LangA_female,12,8,F,Mismatch,both
20,66,66,2,898,2,0,11,13a87eae-d3d1-4edd-bf66-a5005e8d1d04,AD_Group1_test,1,M,dulepo,biwetu,seg_Unattended,dulepo_biwetu,biwetu,single,AD_G1_LangA_female,12,8,F,Mismatch,both
21,15,15,1,1566,2,0,11,13a87eae-d3d1-4edd-bf66-a5005e8d1d04,AD_Group1_test,1,M,zutami,luzuta,seg_Attended,zutami_luzuta,zutami,single,AD_G1_LangA_female,12,8,F,Mismatch,both
22,17,17,1,906,1,1,12,13a87eae-d3d1-4edd-bf66-a5005e8d1d04,AD_Group1_test,1,M,zutami,shifeni,seg_Attended,zutami_shifeni,zutami,single,AD_G1_LangA_female,12,8,F,Mismatch,both
23,43,43,2,607,2,0,12,13a87eae-d3d1-4edd-bf66-a5005e8d1d04,AD_Group1_test,1,F,zafanu,vukoza,seg_Unattended,zafanu_vukoza,vukoza,single,AD_G1_LangA_female,12,8,F,Match,both
24,39,39,1,2984,2,0,12,13a87eae-d3d1-4edd-bf66-a5005e8d1d04,AD_Group1_test,1,F,fanujo,tuheri,seg_Unattended,fanujo_tuheri,fanujo,single,AD_G1_LangA_female,12,8,F,Match,both
25,29,29,1,1436,2,0,12,13a87eae-d3d1-4edd-bf66-a5005e8d1d04,AD_Group1_test,1,F,hoshife,shifeni,seg_Attended,hoshife_shifeni,hoshife,single,AD_G1_LangA_female,12,8,F,Match,both
26,60,60,1,935,1,1,13,13a87eae-d3d1-4edd-bf66-a5005e8d1d04,AD_Group1_test,1,F,pomasi,dulepo,seg_Unattended,pomasi_dulepo,pomasi,single,AD_G1_LangA_female,12,8,F,Match,both
27,37,37,1,936,2,0,13,13a87eae-d3d1-4edd-bf66-a5005e8d1d04,AD_Group1_test,1,F,fanujo,zafanu,seg_Unattended,fanujo_zafanu,fanujo,single,AD_G1_LangA_female,12,8,F,Match,both
28,40,40,2,1569,2,0,13,13a87eae-d3d1-4edd-bf66-a5005e8d1d04,AD_Group1_test,1,M,masihe,fanujo,seg_Unattended,masihe_fanujo,fanujo,single,AD_G1_LangA_female,12,8,F,Mismatch,both
29,35,35,2,2617,2,0,13,13a87eae-d3d1-4edd-bf66-a5005e8d1d04,AD_Group1_test,1,M,shifeni,kirewa,seg_Attended,shifeni_kirewa,kirewa,single,AD_G1_LangA_female,12,8,F,Mismatch,both
30,41,41,1,2441,1,1,14,13a87eae-d3d1-4edd-bf66-a5005e8d1d04,AD_Group1_test,1,F,fanujo,wetuxi,seg_Unattended,fanujo_wetuxi,fanujo,single,AD_G1_LangA_female,12,8,F,Match,both
31,13,13,1,821,1,1,15,13a87eae-d3d1-4edd-bf66-a5005e8d1d04,AD_Group1_test,1,M,zutami,xonisu,seg_Attended,zutami_xonisu,zutami,single,AD_G1_LangA_female,12,8,F,Mismatch,both
32,20,20,1,1115,2,0,15,13a87eae-d3d1-4edd-bf66-a5005e8d1d04,AD_Group1_test,1,F,bavolu,mipeju,seg_Attended,bavolu_mipeju,bavolu,single,AD_G1_LangA_female,12,8,F,Match,both
33,3,3,1,716,1,1,16,13a87eae-d3d1-4edd-bf66-a5005e8d1d04,AD_Group1_test,1,F,nisuda,luzuta,seg_Attended,nisuda_luzuta,nisuda,single,AD_G1_LangA_female,12,8,F,Match,both
34,71,71,2,944,2,0,16,13a87eae-d3d1-4edd-bf66-a5005e8d1d04,AD_Group1_test,1,F,wetuxi,xidule,seg_Unattended,wetuxi_xidule,xidule,single,AD_G1_LangA_female,12,8,F,Match,both
35,49,49,1,1771,2,0,16,13a87eae-d3d1-4edd-bf66-a5005e8d1d04,AD_Group1_test,1,M,herisha,zafanu,seg_Unattended,herisha_zafanu,herisha,single,AD_G1_LangA_female,12,8,F,Mismatch,both
36,57,57,2,724,2,0,16,13a87eae-d3d1-4edd-bf66-a5005e8d1d04,AD_Group1_test,1,M,tuheri,pomasi,seg_Unattended,tuheri_pomasi,pomasi,single,AD_G1_LangA_female,12,8,F,Mismatch,both
37,26,26,2,934,1,1,17,13a87eae-d3d1-4edd-bf66-a5005e8d1d04,AD_Group1_test,1,M,mipeju,hoshife,seg_Attended,mipeju_hoshife,hoshife,single,AD_G1_LangA_female,12,8,F,Mismatch,both
38,14,14,2,688,2,0,17,13a87eae-d3d1-4edd-bf66-a5005e8d1d04,AD_Group1_test,1,F,mipeju,zutami,seg_Attended,mipeju_zutami,zutami,single,AD_G1_LangA_female,12,8,F,Match,both
39,50,50,2,448,1,1,18,13a87eae-d3d1-4edd-bf66-a5005e8d1d04,AD_Group1_test,1,F,shavuko,herisha,seg_Unattended,shavuko_herisha,herisha,single,AD_G1_LangA_female,12,8,F,Match,both
40,53,53,1,420,1,1,19,13a87eae-d3d1-4edd-bf66-a5005e8d1d04,AD_Group1_test,1,M,herisha,wetuxi,seg_Unattended,herisha_wetuxi,herisha,single,AD_G1_LangA_female,12,8,F,Mismatch,both
41,47,47,2,550,2,0,19,13a87eae-d3d1-4edd-bf66-a5005e8d1d04,AD_Group1_test,1,F,wetuxi,vukoza,seg_Unattended,wetuxi_vukoza,vukoza,single,AD_G1_LangA_female,12,8,F,Match,both
42,32,32,1,975,1,1,20,13a87eae-d3d1-4edd-bf66-a5005e8d1d04,AD_Group1_test,1,F,kirewa,mipeju,seg_Attended,kirewa_mipeju,kirewa,single,AD_G1_LangA_female,12,8,F,Match,both
43,28,28,2,2294,1,1,21,13a87eae-d3d1-4edd-bf66-a5005e8d1d04,AD_Group1_test,1,M,voluho,hoshife,seg_Attended,voluho_hoshife,hoshife,single,AD_G1_LangA_female,12,8,F,Mismatch,both
44,56,56,1,1630,1,1,22,13a87eae-d3d1-4edd-bf66-a5005e8d1d04,AD_Group1_test,1,F,pomasi,shavuko,seg_Unattended,pomasi_shavuko,pomasi,single,AD_G1_LangA_female,12,8,F,Match,both
45,7,7,2,1342,1,1,23,13a87eae-d3d1-4edd-bf66-a5005e8d1d04,AD_Group1_test,1,F,xonisu,pejuxo,seg_Attended,xonisu_pejuxo,pejuxo,single,AD_G1_LangA_female,12,8,F,Match,both
46,30,30,2,446,2,0,23,13a87eae-d3d1-4edd-bf66-a5005e8d1d04,AD_Group1_test,1,M,rewani,hoshife,seg_Attended,rewani_hoshife,hoshife,single,AD_G1_LangA_female,12,8,F,Mismatch,both
47,21,21,2,1120,2,0,23,13a87eae-d3d1-4edd-bf66-a5005e8d1d04,AD_Group1_test,1,M,luzuta,bavolu,seg_Attended,luzuta_bavolu,bavolu,single,AD_G1_LangA_female,12,8,F,Mismatch,both
48,12,12,1,400,2,0,23,13a87eae-d3d1-4edd-bf66-a5005e8d1d04,AD_Group1_test,1,M,pejuxo,rewani,seg_Attended,pejuxo_rewani,pejuxo,single,AD_G1_LangA_female,12,8,F,Mismatch,both
49,52,52,2,703,1,1,24,13a87eae-d3d1-4edd-bf66-a5005e8d1d04,AD_Group1_test,1,F,masihe,herisha,seg_Unattended,masihe_herisha,herisha,single,AD_G1_LangA_female,12,8,F,Match,both
50,23,23,2,384,2,0,24,13a87eae-d3d1-4edd-bf66-a5005e8d1d04,AD_Group1_test,1,M,shifeni,bavolu,seg_Attended,shifeni_bavolu,bavolu,single,AD_G1_LangA_female,12,8,F,Mismatch,both
51,22,22,1,1916,2,0,24,13a87eae-d3d1-4edd-bf66-a5005e8d1d04,AD_Group1_test,1,F,bavolu,voluho,seg_Attended,bavolu_voluho,bavolu,single,AD_G1_LangA_female,12,8,F,Match,both
52,36,36,1,686,1,1,25,13a87eae-d3d1-4edd-bf66-a5005e8d1d04,AD_Group1_test,1,F,kirewa,rewani,seg_Attended,kirewa_rewani,kirewa,single,AD_G1_LangA_female,12,8,F,Match,both
53,27,27,1,1280,1,1,26,13a87eae-d3d1-4edd-bf66-a5005e8d1d04,AD_Group1_test,1,F,hoshife,luzuta,seg_Attended,hoshife_luzuta,hoshife,single,AD_G1_LangA_female,12,8,F,Match,both
54,16,16,2,2158,2,0,26,13a87eae-d3d1-4edd-bf66-a5005e8d1d04,AD_Group1_test,1,F,voluho,zutami,seg_Attended,voluho_zutami,zutami,single,AD_G1_LangA_female,12,8,F,Match,both
55,8,8,1,396,2,0,26,13a87eae-d3d1-4edd-bf66-a5005e8d1d04,AD_Group1_test,1,M,pejuxo,mipeju,seg_Attended,pejuxo_mipeju,pejuxo,single,AD_G1_LangA_female,12,8,F,Mismatch,both
56,68,68,1,704,1,1,27,13a87eae-d3d1-4edd-bf66-a5005e8d1d04,AD_Group1_test,1,F,xidule,shavuko,seg_Unattended,xidule_shavuko,xidule,single,AD_G1_LangA_female,12,8,F,Match,both
57,61,61,1,3243,1,1,28,13a87eae-d3d1-4edd-bf66-a5005e8d1d04,AD_Group1_test,1,F,biwetu,zafanu,seg_Unattended,biwetu_zafanu,biwetu,single,AD_G1_LangA_female,12,8,F,Match,both
58,1,1,1,2905,1,1,29,13a87eae-d3d1-4edd-bf66-a5005e8d1d04,AD_Group1_test,1,F,nisuda,xonisu,seg_Attended,nisuda_xonisu,nisuda,single,AD_G1_LangA_female,12,8,F,Match,both
59,46,46,1,607,2,0,29,13a87eae-d3d1-4edd-bf66-a5005e8d1d04,AD_Group1_test,1,M,vukoza,masihe,seg_Unattended,vukoza_masihe,vukoza,single,AD_G1_LangA_female,12,8,F,Mismatch,both
60,33,33,2,927,1,1,30,13a87eae-d3d1-4edd-bf66-a5005e8d1d04,AD_Group1_test,1,M,luzuta,kirewa,seg_Attended,luzuta_kirewa,kirewa,single,AD_G1_LangA_female,12,8,F,Mismatch,both
61,65,65,1,641,1,1,31,13a87eae-d3d1-4edd-bf66-a5005e8d1d04,AD_Group1_test,1,F,biwetu,wetuxi,seg_Unattended,biwetu_wetuxi,biwetu,single,AD_G1_LangA_female,12,8,F,Match,both
62,11,11,2,638,2,0,31,13a87eae-d3d1-4edd-bf66-a5005e8d1d04,AD_Group1_test,1,F,shifeni,pejuxo,seg_Attended,shifeni_pejuxo,pejuxo,single,AD_G1_LangA_female,12,8,F,Match,both
63,24,24,1,675,2,0,31,13a87eae-d3d1-4edd-bf66-a5005e8d1d04,AD_Group1_test,1,F,bavolu,rewani,seg_Attended,bavolu_rewani,bavolu,single,AD_G1_LangA_female,12,8,F,Match,both
64,9,9,2,1823,2,0,31,13a87eae-d3d1-4edd-bf66-a5005e8d1d04,AD_Group1_test,1,F,luzuta,pejuxo,seg_Attended,luzuta_pejuxo,pejuxo,single,AD_G1_LangA_female,12,8,F,Match,both
65,45,45,2,621,2,0,31,13a87eae-d3d1-4edd-bf66-a5005e8d1d04,AD_Group1_test,1,F,tuheri,vukoza,seg_Unattended,tuheri_vukoza,vukoza,single,AD_G1_LangA_female,12,8,F,Match,both
66,70,70,1,3263,2,0,31,13a87eae-d3d1-4edd-bf66-a5005e8d1d04,AD_Group1_test,1,F,xidule,masihe,seg_Unattended,xidule_masihe,xidule,single,AD_G1_LangA_female,12,8,F,Match,both
67,19,19,2,716,2,0,31,13a87eae-d3d1-4edd-bf66-a5005e8d1d04,AD_Group1_test,1,M,xonisu,bavolu,seg_Attended,xonisu_bavolu,bavolu,single,AD_G1_LangA_female,12,8,F,Mismatch,both
68,42,42,2,698,1,1,32,13a87eae-d3d1-4edd-bf66-a5005e8d1d04,AD_Group1_test,1,M,dulepo,fanujo,seg_Unattended,dulepo_fanujo,fanujo,single,AD_G1_LangA_female,12,8,F,Mismatch,both
69,6,6,2,367,2,0,32,13a87eae-d3d1-4edd-bf66-a5005e8d1d04,AD_Group1_test,1,M,rewani,nisuda,seg_Attended,rewani_nisuda,nisuda,single,AD_G1_LangA_female,12,8,F,Mismatch,both
70,38,38,2,792,1,1,33,13a87eae-d3d1-4edd-bf66-a5005e8d1d04,AD_Group1_test,1,M,shavuko,fanujo,seg_Unattended,shavuko_fanujo,fanujo,single,AD_G1_LangA_female,12,8,F,Mismatch,both
71,69,69,2,452,2,0,33,13a87eae-d3d1-4edd-bf66-a5005e8d1d04,AD_Group1_test,1,M,tuheri,xidule,seg_Unattended,tuheri_xidule,xidule,single,AD_G1_LangA_female,12,8,F,Mismatch,both
72,2,2,2,683,1,1,34,13a87eae-d3d1-4edd-bf66-a5005e8d1d04,AD_Group1_test,1,M,mipeju,nisuda,seg_Attended,mipeju_nisuda,nisuda,single,AD_G1_LangA_female,12,8,F,Mismatch,both
73,10,82,1,1866,2,0,34,13a87eae-d3d1-4edd-bf66-a5005e8d1d04,AD_Group1_test,1,M,pejuxo,pomasi,rec,pejuxo_pomasi,pejuxo,single,AD_G1_LangA_female,12,8,F,Mismatch,both
74,36,108,1,416,1,1,35,13a87eae-d3d1-4edd-bf66-a5005e8d1d04,AD_Group1_test,1,F,kirewa,xidule,rec,kirewa_xidule,kirewa,single,AD_G1_LangA_female,12,8,F,Match,both
75,20,92,1,378,1,1,36,13a87eae-d3d1-4edd-bf66-a5005e8d1d04,AD_Group1_test,1,F,bavolu,vukoza,rec,bavolu_vukoza,bavolu,single,AD_G1_LangA_female,12,8,F,Match,both
76,14,86,2,444,1,1,37,13a87eae-d3d1-4edd-bf66-a5005e8d1d04,AD_Group1_test,1,F,vukoza,zutami,rec,vukoza_zutami,zutami,single,AD_G1_LangA_female,12,8,F,Match,both
77,6,78,2,400,1,1,38,13a87eae-d3d1-4edd-bf66-a5005e8d1d04,AD_Group1_test,1,M,xidule,nisuda,rec,xidule_nisuda,nisuda,single,AD_G1_LangA_female,12,8,F,Mismatch,both
78,3,75,1,435,1,1,39,13a87eae-d3d1-4edd-bf66-a5005e8d1d04,AD_Group1_test,1,F,nisuda,herisha,rec,nisuda_herisha,nisuda,single,AD_G1_LangA_female,12,8,F,Match,both
79,8,80,1,374,2,0,39,13a87eae-d3d1-4edd-bf66-a5005e8d1d04,AD_Group1_test,1,M,pejuxo,vukoza,rec,pejuxo_vukoza,pejuxo,single,AD_G1_LangA_female,12,8,F,Mismatch,both
80,13,85,1,3872,1,1,40,13a87eae-d3d1-4edd-bf66-a5005e8d1d04,AD_Group1_test,1,M,zutami,fanujo,rec,zutami_fanujo,zutami,single,AD_G1_LangA_female,12,8,F,Mismatch,both
81,33,105,2,3140,2,0,40,13a87eae-d3d1-4edd-bf66-a5005e8d1d04,AD_Group1_test,1,M,herisha,kirewa,rec,herisha_kirewa,kirewa,single,AD_G1_LangA_female,12,8,F,Mismatch,both
82,17,89,1,455,1,1,41,13a87eae-d3d1-4edd-bf66-a5005e8d1d04,AD_Group1_test,1,M,zutami,biwetu,rec,zutami_biwetu,zutami,single,AD_G1_LangA_female,12,8,F,Mismatch,both
83,5,77,1,448,1,1,42,13a87eae-d3d1-4edd-bf66-a5005e8d1d04,AD_Group1_test,1,F,nisuda,biwetu,rec,nisuda_biwetu,nisuda,single,AD_G1_LangA_female,12,8,F,Match,both
84,18,90,2,418,1,1,43,13a87eae-d3d1-4edd-bf66-a5005e8d1d04,AD_Group1_test,1,F,xidule,zutami,rec,xidule_zutami,zutami,single,AD_G1_LangA_female,12,8,F,Match,both
85,35,107,2,879,1,1,44,13a87eae-d3d1-4edd-bf66-a5005e8d1d04,AD_Group1_test,1,M,biwetu,kirewa,rec,biwetu_kirewa,kirewa,single,AD_G1_LangA_female,12,8,F,Mismatch,both
86,27,99,1,1033,2,0,44,13a87eae-d3d1-4edd-bf66-a5005e8d1d04,AD_Group1_test,1,F,hoshife,herisha,rec,hoshife_herisha,hoshife,single,AD_G1_LangA_female,12,8,F,Match,both
87,12,84,1,4257,2,0,44,13a87eae-d3d1-4edd-bf66-a5005e8d1d04,AD_Group1_test,1,M,pejuxo,xidule,rec,pejuxo_xidule,pejuxo,single,AD_G1_LangA_female,12,8,F,Mismatch,both
88,25,97,1,663,1,1,45,13a87eae-d3d1-4edd-bf66-a5005e8d1d04,AD_Group1_test,1,F,hoshife,fanujo,rec,hoshife_fanujo,hoshife,single,AD_G1_LangA_female,12,8,F,Match,both
89,22,94,1,1364,1,1,46,13a87eae-d3d1-4edd-bf66-a5005e8d1d04,AD_Group1_test,1,F,bavolu,pomasi,rec,bavolu_pomasi,bavolu,single,AD_G1_LangA_female,12,8,F,Match,both
90,29,101,1,1491,1,1,47,13a87eae-d3d1-4edd-bf66-a5005e8d1d04,AD_Group1_test,1,F,hoshife,biwetu,rec,hoshife_biwetu,hoshife,single,AD_G1_LangA_female,12,8,F,Match,both
91,23,95,2,857,2,0,47,13a87eae-d3d1-4edd-bf66-a5005e8d1d04,AD_Group1_test,1,M,biwetu,bavolu,rec,biwetu_bavolu,bavolu,single,AD_G1_LangA_female,12,8,F,Mismatch,both
92,15,87,1,530,2,0,47,13a87eae-d3d1-4edd-bf66-a5005e8d1d04,AD_Group1_test,1,M,zutami,herisha,rec,zutami_herisha,zutami,single,AD_G1_LangA_female,12,8,F,Mismatch,both
93,34,106,1,386,1,1,48,13a87eae-d3d1-4edd-bf66-a5005e8d1d04,AD_Group1_test,1,F,kirewa,pomasi,rec,kirewa_pomasi,kirewa,single,AD_G1_LangA_female,12,8,F,Match,both
94,2,74,2,367,1,1,49,13a87eae-d3d1-4edd-bf66-a5005e8d1d04,AD_Group1_test,1,M,vukoza,nisuda,rec,vukoza_nisuda,nisuda,single,AD_G1_LangA_female,12,8,F,Mismatch,both
95,32,104,1,419,1,1,50,13a87eae-d3d1-4edd-bf66-a5005e8d1d04,AD_Group1_test,1,F,kirewa,vukoza,rec,kirewa_vukoza,kirewa,single,AD_G1_LangA_female,12,8,F,Match,both
96,4,76,2,330,1,1,51,13a87eae-d3d1-4edd-bf66-a5005e8d1d04,AD_Group1_test,1,M,pomasi,nisuda,rec,pomasi_nisuda,nisuda,single,AD_G1_LangA_female,12,8,F,Mismatch,both
97,16,88,2,2840,1,1,52,13a87eae-d3d1-4edd-bf66-a5005e8d1d04,AD_Group1_test,1,F,pomasi,zutami,rec,pomasi_zutami,zutami,single,AD_G1_LangA_female,12,8,F,Match,both
98,7,79,2,578,2,0,52,13a87eae-d3d1-4edd-bf66-a5005e8d1d04,AD_Group1_test,1,F,fanujo,pejuxo,rec,fanujo_pejuxo,pejuxo,single,AD_G1_LangA_female,12,8,F,Match,both
99,21,93,2,1177,2,0,52,13a87eae-d3d1-4edd-bf66-a5005e8d1d04,AD_Group1_test,1,M,herisha,bavolu,rec,herisha_bavolu,bavolu,single,AD_G1_LangA_female,12,8,F,Mismatch,both
100,30,102,2,377,1,1,53,13a87eae-d3d1-4edd-bf66-a5005e8d1d04,AD_Group1_test,1,M,xidule,hoshife,rec,xidule_hoshife,hoshife,single,AD_G1_LangA_female,12,8,F,Mismatch,both
101,28,100,2,513,2,0,53,13a87eae-d3d1-4edd-bf66-a5005e8d1d04,AD_Group1_test,1,M,pomasi,hoshife,rec,pomasi_hoshife,hoshife,single,AD_G1_LangA_female,12,8,F,Mismatch,both
102,26,98,2,278,1,1,54,13a87eae-d3d1-4edd-bf66-a5005e8d1d04,AD_Group1_test,1,M,vukoza,hoshife,rec,vukoza_hoshife,hoshife,single,AD_G1_LangA_female,12,8,F,Mismatch,both
103,31,103,2,641,2,0,54,13a87eae-d3d1-4edd-bf66-a5005e8d1d04,AD_Group1_test,1,M,fanujo,kirewa,rec,fanujo_kirewa,kirewa,single,AD_G1_LangA_female,12,8,F,Mismatch,both
104,19,91,2,931,2,0,54,13a87eae-d3d1-4edd-bf66-a5005e8d1d04,AD_Group1_test,1,M,fanujo,bavolu,rec,fanujo_bavolu,bavolu,single,AD_G1_LangA_female,12,8,F,Mismatch,both
105,24,96,1,489,1,1,55,13a87eae-d3d1-4edd-bf66-a5005e8d1d04,AD_Group1_test,1,F,bavolu,xidule,rec,bavolu_xidule,bavolu,single,AD_G1_LangA_female,12,8,F,Match,both
106,1,73,1,818,1,1,56,13a87eae-d3d1-4edd-bf66-a5005e8d1d04,AD_Group1_test,1,F,nisuda,fanujo,rec,nisuda_fanujo,nisuda,single,AD_G1_LangA_female,12,8,F,Match,both
107,11,83,2,653,1,1,57,13a87eae-d3d1-4edd-bf66-a5005e8d1d04,AD_Group1_test,1,F,biwetu,pejuxo,rec,biwetu_pejuxo,pejuxo,single,AD_G1_LangA_female,12,8,F,Match,both
108,9,81,2,420,2,0,57,13a87eae-d3d1-4edd-bf66-a5005e8d1d04,AD_Group1_test,1,F,herisha,pejuxo,rec,herisha_pejuxo,pejuxo,single,AD_G1_LangA_female,12,8,F,Match,both
1,41,41,1,217,1,1,1,bdd55ca6-03b3-4a47-8e65-02fc58cc1fc2,AD_Group1_test,1,F,fanujo,wetuxi,seg_Unattended,fanujo_wetuxi,fanujo,single,AD_G1_LangA_female,12,6,F,Match,both
2,56,56,1,72,2,0,1,bdd55ca6-03b3-4a47-8e65-02fc58cc1fc2,AD_Group1_test,1,F,pomasi,shavuko,seg_Unattended,pomasi_shavuko,pomasi,single,AD_G1_LangA_female,12,6,F,Match,both
3,21,21,2,417,2,0,1,bdd55ca6-03b3-4a47-8e65-02fc58cc1fc2,AD_Group1_test,1,M,luzuta,bavolu,seg_Attended,luzuta_bavolu,bavolu,single,AD_G1_LangA_female,12,6,F,Mismatch,both
4,12,12,1,306,2,0,1,bdd55ca6-03b3-4a47-8e65-02fc58cc1fc2,AD_Group1_test,1,M,pejuxo,rewani,seg_Attended,pejuxo_rewani,pejuxo,single,AD_G1_LangA_female,12,6,F,Mismatch,both
5,22,22,1,835,1,1,2,bdd55ca6-03b3-4a47-8e65-02fc58cc1fc2,AD_Group1_test,1,F,bavolu,voluho,seg_Attended,bavolu_voluho,bavolu,single,AD_G1_LangA_female,12,6,F,Match,both
6,29,29,1,591,2,0,2,bdd55ca6-03b3-4a47-8e65-02fc58cc1fc2,AD_Group1_test,1,F,hoshife,shifeni,seg_Attended,hoshife_shifeni,hoshife,single,AD_G1_LangA_female,12,6,F,Match,both
7,66,66,2,313,2,0,2,bdd55ca6-03b3-4a47-8e65-02fc58cc1fc2,AD_Group1_test,1,M,dulepo,biwetu,seg_Unattended,dulepo_biwetu,biwetu,single,AD_G1_LangA_female,12,6,F,Mismatch,both
8,9,9,2,414,1,1,3,bdd55ca6-03b3-4a47-8e65-02fc58cc1fc2,AD_Group1_test,1,F,luzuta,pejuxo,seg_Attended,luzuta_pejuxo,pejuxo,single,AD_G1_LangA_female,12,6,F,Match,both
9,60,60,1,376,1,1,4,bdd55ca6-03b3-4a47-8e65-02fc58cc1fc2,AD_Group1_test,1,F,pomasi,dulepo,seg_Unattended,pomasi_dulepo,pomasi,single,AD_G1_LangA_female,12,6,F,Match,both
10,42,42,2,187,1,1,5,bdd55ca6-03b3-4a47-8e65-02fc58cc1fc2,AD_Group1_test,1,M,dulepo,fanujo,seg_Unattended,dulepo_fanujo,fanujo,single,AD_G1_LangA_female,12,6,F,Mismatch,both
11,37,37,1,293,1,1,6,bdd55ca6-03b3-4a47-8e65-02fc58cc1fc2,AD_Group1_test,1,F,fanujo,zafanu,seg_Unattended,fanujo_zafanu,fanujo,single,AD_G1_LangA_female,12,6,F,Match,both
12,15,15,1,433,2,0,6,bdd55ca6-03b3-4a47-8e65-02fc58cc1fc2,AD_Group1_test,1,M,zutami,luzuta,seg_Attended,zutami_luzuta,zutami,single,AD_G1_LangA_female,12,6,F,Mismatch,both
13,5,5,1,339,2,0,6,bdd55ca6-03b3-4a47-8e65-02fc58cc1fc2,AD_Group1_test,1,F,nisuda,shifeni,seg_Attended,nisuda_shifeni,nisuda,single,AD_G1_LangA_female,12,6,F,Match,both
14,16,16,2,324,2,0,6,bdd55ca6-03b3-4a47-8e65-02fc58cc1fc2,AD_Group1_test,1,F,voluho,zutami,seg_Attended,voluho_zutami,zutami,single,AD_G1_LangA_female,12,6,F,Match,both
15,4,4,2,562,1,1,7,bdd55ca6-03b3-4a47-8e65-02fc58cc1fc2,AD_Group1_test,1,M,voluho,nisuda,seg_Attended,voluho_nisuda,nisuda,single,AD_G1_LangA_female,12,6,F,Mismatch,both
16,20,20,1,143,1,1,8,bdd55ca6-03b3-4a47-8e65-02fc58cc1fc2,AD_Group1_test,1,F,bavolu,mipeju,seg_Attended,bavolu_mipeju,bavolu,single,AD_G1_LangA_female,12,6,F,Match,both
17,55,55,2,397,2,0,8,bdd55ca6-03b3-4a47-8e65-02fc58cc1fc2,AD_Group1_test,1,M,zafanu,pomasi,seg_Unattended,zafanu_pomasi,pomasi,single,AD_G1_LangA_female,12,6,F,Mismatch,both
18,3,3,1,221,1,1,9,bdd55ca6-03b3-4a47-8e65-02fc58cc1fc2,AD_Group1_test,1,F,nisuda,luzuta,seg_Attended,nisuda_luzuta,nisuda,single,AD_G1_LangA_female,12,6,F,Match,both
19,2,2,2,702,1,1,10,bdd55ca6-03b3-4a47-8e65-02fc58cc1fc2,AD_Group1_test,1,M,mipeju,nisuda,seg_Attended,mipeju_nisuda,nisuda,single,AD_G1_LangA_female,12,6,F,Mismatch,both
20,47,47,2,299,1,1,11,bdd55ca6-03b3-4a47-8e65-02fc58cc1fc2,AD_Group1_test,1,F,wetuxi,vukoza,seg_Unattended,wetuxi_vukoza,vukoza,single,AD_G1_LangA_female,12,6,F,Match,both
21,17,17,1,311,2,0,11,bdd55ca6-03b3-4a47-8e65-02fc58cc1fc2,AD_Group1_test,1,M,zutami,shifeni,seg_Attended,zutami_shifeni,zutami,single,AD_G1_LangA_female,12,6,F,Mismatch,both
22,38,38,2,453,1,1,12,bdd55ca6-03b3-4a47-8e65-02fc58cc1fc2,AD_Group1_test,1,M,shavuko,fanujo,seg_Unattended,shavuko_fanujo,fanujo,single,AD_G1_LangA_female,12,6,F,Mismatch,both
23,70,70,1,406,1,1,13,bdd55ca6-03b3-4a47-8e65-02fc58cc1fc2,AD_Group1_test,1,F,xidule,masihe,seg_Unattended,xidule_masihe,xidule,single,AD_G1_LangA_female,12,6,F,Match,both
24,54,54,2,378,1,1,14,bdd55ca6-03b3-4a47-8e65-02fc58cc1fc2,AD_Group1_test,1,F,dulepo,herisha,seg_Unattended,dulepo_herisha,herisha,single,AD_G1_LangA_female,12,6,F,Match,both
25,27,27,1,289,1,1,15,bdd55ca6-03b3-4a47-8e65-02fc58cc1fc2,AD_Group1_test,1,F,hoshife,luzuta,seg_Attended,hoshife_luzuta,hoshife,single,AD_G1_LangA_female,12,6,F,Match,both
26,50,50,2,517,2,0,15,bdd55ca6-03b3-4a47-8e65-02fc58cc1fc2,AD_Group1_test,1,F,shavuko,herisha,seg_Unattended,shavuko_herisha,herisha,single,AD_G1_LangA_female,12,6,F,Match,both
27,49,49,1,1053,1,1,16,bdd55ca6-03b3-4a47-8e65-02fc58cc1fc2,AD_Group1_test,1,M,herisha,zafanu,seg_Unattended,herisha_zafanu,herisha,single,AD_G1_LangA_female,12,6,F,Mismatch,both
28,25,25,1,241,1,1,17,bdd55ca6-03b3-4a47-8e65-02fc58cc1fc2,AD_Group1_test,1,F,hoshife,xonisu,seg_Attended,hoshife_xonisu,hoshife,single,AD_G1_LangA_female,12,6,F,Match,both
29,65,65,1,358,2,0,17,bdd55ca6-03b3-4a47-8e65-02fc58cc1fc2,AD_Group1_test,1,F,biwetu,wetuxi,seg_Unattended,biwetu_wetuxi,biwetu,single,AD_G1_LangA_female,12,6,F,Match,both
30,8,8,1,396,1,1,18,bdd55ca6-03b3-4a47-8e65-02fc58cc1fc2,AD_Group1_test,1,M,pejuxo,mipeju,seg_Attended,pejuxo_mipeju,pejuxo,single,AD_G1_LangA_female,12,6,F,Mismatch,both
31,14,14,2,256,2,0,18,bdd55ca6-03b3-4a47-8e65-02fc58cc1fc2,AD_Group1_test,1,F,mipeju,zutami,seg_Attended,mipeju_zutami,zutami,single,AD_G1_LangA_female,12,6,F,Match,both
32,53,53,1,120,1,1,19,bdd55ca6-03b3-4a47-8e65-02fc58cc1fc2,AD_Group1_test,1,M,herisha,wetuxi,seg_Unattended,herisha_wetuxi,herisha,single,AD_G1_LangA_female,12,6,F,Mismatch,both
33,51,51,1,156,1,1,20,bdd55ca6-03b3-4a47-8e65-02fc58cc1fc2,AD_Group1_test,1,M,herisha,tuheri,seg_Unattended,herisha_tuheri,herisha,single,AD_G1_LangA_female,12,6,F,Mismatch,both
34,64,64,2,1635,1,1,21,bdd55ca6-03b3-4a47-8e65-02fc58cc1fc2,AD_Group1_test,1,M,masihe,biwetu,seg_Unattended,masihe_biwetu,biwetu,single,AD_G1_LangA_female,12,6,F,Mismatch,both
35,6,6,2,336,1,1,22,bdd55ca6-03b3-4a47-8e65-02fc58cc1fc2,AD_Group1_test,1,M,rewani,nisuda,seg_Attended,rewani_nisuda,nisuda,single,AD_G1_LangA_female,12,6,F,Mismatch,both
36,26,26,2,104,1,1,23,bdd55ca6-03b3-4a47-8e65-02fc58cc1fc2,AD_Group1_test,1,M,mipeju,hoshife,seg_Attended,mipeju_hoshife,hoshife,single,AD_G1_LangA_female,12,6,F,Mismatch,both
37,10,10,1,372,1,1,24,bdd55ca6-03b3-4a47-8e65-02fc58cc1fc2,AD_Group1_test,1,M,pejuxo,voluho,seg_Attended,pejuxo_voluho,pejuxo,single,AD_G1_LangA_female,12,6,F,Mismatch,both
38,35,35,2,65,2,0,24,bdd55ca6-03b3-4a47-8e65-02fc58cc1fc2,AD_Group1_test,1,M,shifeni,kirewa,seg_Attended,shifeni_kirewa,kirewa,single,AD_G1_LangA_female,12,6,F,Mismatch,both
39,18,18,2,301,2,0,24,bdd55ca6-03b3-4a47-8e65-02fc58cc1fc2,AD_Group1_test,1,F,rewani,zutami,seg_Attended,rewani_zutami,zutami,single,AD_G1_LangA_female,12,6,F,Match,both
40,13,13,1,380,1,1,25,bdd55ca6-03b3-4a47-8e65-02fc58cc1fc2,AD_Group1_test,1,M,zutami,xonisu,seg_Attended,zutami_xonisu,zutami,single,AD_G1_LangA_female,12,6,F,Mismatch,both
41,1,1,1,153,1,1,26,bdd55ca6-03b3-4a47-8e65-02fc58cc1fc2,AD_Group1_test,1,F,nisuda,xonisu,seg_Attended,nisuda_xonisu,nisuda,single,AD_G1_LangA_female,12,6,F,Match,both
42,44,44,1,147,2,0,26,bdd55ca6-03b3-4a47-8e65-02fc58cc1fc2,AD_Group1_test,1,M,vukoza,shavuko,seg_Unattended,vukoza_shavuko,vukoza,single,AD_G1_LangA_female,12,6,F,Mismatch,both
43,7,7,2,139,2,0,26,bdd55ca6-03b3-4a47-8e65-02fc58cc1fc2,AD_Group1_test,1,F,xonisu,pejuxo,seg_Attended,xonisu_pejuxo,pejuxo,single,AD_G1_LangA_female,12,6,F,Match,both
44,36,36,1,128,2,0,26,bdd55ca6-03b3-4a47-8e65-02fc58cc1fc2,AD_Group1_test,1,F,kirewa,rewani,seg_Attended,kirewa_rewani,kirewa,single,AD_G1_LangA_female,12,6,F,Match,both
45,30,30,2,250,1,1,27,bdd55ca6-03b3-4a47-8e65-02fc58cc1fc2,AD_Group1_test,1,M,rewani,hoshife,seg_Attended,rewani_hoshife,hoshife,single,AD_G1_LangA_female,12,6,F,Mismatch,both
46,40,40,2,11,1,1,28,bdd55ca6-03b3-4a47-8e65-02fc58cc1fc2,AD_Group1_test,1,M,masihe,fanujo,seg_Unattended,masihe_fanujo,fanujo,single,AD_G1_LangA_female,12,6,F,Mismatch,both
47,34,34,1,67,2,0,28,bdd55ca6-03b3-4a47-8e65-02fc58cc1fc2,AD_Group1_test,1,F,kirewa,voluho,seg_Attended,kirewa_voluho,kirewa,single,AD_G1_LangA_female,12,6,F,Match,both
48,57,57,2,498,2,0,28,bdd55ca6-03b3-4a47-8e65-02fc58cc1fc2,AD_Group1_test,1,M,tuheri,pomasi,seg_Unattended,tuheri_pomasi,pomasi,single,AD_G1_LangA_female,12,6,F,Mismatch,both
49,19,19,2,4,2,0,28,bdd55ca6-03b3-4a47-8e65-02fc58cc1fc2,AD_Group1_test,1,M,xonisu,bavolu,seg_Attended,xonisu_bavolu,bavolu,single,AD_G1_LangA_female,12,6,F,Mismatch,both
50,33,33,2,728,2,0,28,bdd55ca6-03b3-4a47-8e65-02fc58cc1fc2,AD_Group1_test,1,M,luzuta,kirewa,seg_Attended,luzuta_kirewa,kirewa,single,AD_G1_LangA_female,12,6,F,Mismatch,both
51,59,59,2,398,2,0,28,bdd55ca6-03b3-4a47-8e65-02fc58cc1fc2,AD_Group1_test,1,M,wetuxi,pomasi,seg_Unattended,wetuxi_pomasi,pomasi,single,AD_G1_LangA_female,12,6,F,Mismatch,both
52,69,69,2,425,2,0,28,bdd55ca6-03b3-4a47-8e65-02fc58cc1fc2,AD_Group1_test,1,M,tuheri,xidule,seg_Unattended,tuheri_xidule,xidule,single,AD_G1_LangA_female,12,6,F,Mismatch,both
53,58,58,1,238,2,0,28,bdd55ca6-03b3-4a47-8e65-02fc58cc1fc2,AD_Group1_test,1,F,pomasi,masihe,seg_Unattended,pomasi_masihe,pomasi,single,AD_G1_LangA_female,12,6,F,Match,both
54,52,52,2,586,1,1,29,bdd55ca6-03b3-4a47-8e65-02fc58cc1fc2,AD_Group1_test,1,F,masihe,herisha,seg_Unattended,masihe_herisha,herisha,single,AD_G1_LangA_female,12,6,F,Match,both
55,11,11,2,184,2,0,29,bdd55ca6-03b3-4a47-8e65-02fc58cc1fc2,AD_Group1_test,1,F,shifeni,pejuxo,seg_Attended,shifeni_pejuxo,pejuxo,single,AD_G1_LangA_female,12,6,F,Match,both
56,63,63,2,317,1,1,30,bdd55ca6-03b3-4a47-8e65-02fc58cc1fc2,AD_Group1_test,1,F,biwetu,tuheri,seg_Unattended,biwetu_tuheri,biwetu,single,AD_G1_LangA_female,12,6,F,Match,both
57,48,48,1,441,1,1,31,bdd55ca6-03b3-4a47-8e65-02fc58cc1fc2,AD_Group1_test,1,M,vukoza,dulepo,seg_Unattended,vukoza_dulepo,vukoza,single,AD_G1_LangA_female,12,6,F,Mismatch,both
58,62,62,2,239,2,0,31,bdd55ca6-03b3-4a47-8e65-02fc58cc1fc2,AD_Group1_test,1,M,shavuko,biwetu,seg_Unattended,shavuko_biwetu,biwetu,single,AD_G1_LangA_female,12,6,F,Mismatch,both
59,24,24,1,227,2,0,31,bdd55ca6-03b3-4a47-8e65-02fc58cc1fc2,AD_Group1_test,1,F,bavolu,rewani,seg_Attended,bavolu_rewani,bavolu,single,AD_G1_LangA_female,12,6,F,Match,both
60,61,61,1,352,2,0,31,bdd55ca6-03b3-4a47-8e65-02fc58cc1fc2,AD_Group1_test,1,F,biwetu,zafanu,seg_Unattended,biwetu_zafanu,biwetu,single,AD_G1_LangA_female,12,6,F,Match,both
61,71,71,2,347,1,1,32,bdd55ca6-03b3-4a47-8e65-02fc58cc1fc2,AD_Group1_test,1,F,wetuxi,xidule,seg_Unattended,wetuxi_xidule,xidule,single,AD_G1_LangA_female,12,6,F,Match,both
62,43,43,2,218,2,0,32,bdd55ca6-03b3-4a47-8e65-02fc58cc1fc2,AD_Group1_test,1,F,zafanu,vukoza,seg_Unattended,zafanu_vukoza,vukoza,single,AD_G1_LangA_female,12,6,F,Match,both
63,45,45,2,255,1,1,33,bdd55ca6-03b3-4a47-8e65-02fc58cc1fc2,AD_Group1_test,1,F,tuheri,vukoza,seg_Unattended,tuheri_vukoza,vukoza,single,AD_G1_LangA_female,12,6,F,Match,both
64,72,72,1,462,1,1,34,bdd55ca6-03b3-4a47-8e65-02fc58cc1fc2,AD_Group1_test,1,F,xidule,dulepo,seg_Unattended,xidule_dulepo,xidule,single,AD_G1_LangA_female,12,6,F,Match,both
65,46,46,1,5,1,1,35,bdd55ca6-03b3-4a47-8e65-02fc58cc1fc2,AD_Group1_test,1,M,vukoza,masihe,seg_Unattended,vukoza_masihe,vukoza,single,AD_G1_LangA_female,12,6,F,Mismatch,both
66,67,67,2,262,2,0,35,bdd55ca6-03b3-4a47-8e65-02fc58cc1fc2,AD_Group1_test,1,M,zafanu,xidule,seg_Unattended,zafanu_xidule,xidule,single,AD_G1_LangA_female,12,6,F,Mismatch,both
67,32,32,1,378,1,1,36,bdd55ca6-03b3-4a47-8e65-02fc58cc1fc2,AD_Group1_test,1,F,kirewa,mipeju,seg_Attended,kirewa_mipeju,kirewa,single,AD_G1_LangA_female,12,6,F,Match,both
68,23,23,2,634,2,0,36,bdd55ca6-03b3-4a47-8e65-02fc58cc1fc2,AD_Group1_test,1,M,shifeni,bavolu,seg_Attended,shifeni_bavolu,bavolu,single,AD_G1_LangA_female,12,6,F,Mismatch,both
69,68,68,1,347,2,0,36,bdd55ca6-03b3-4a47-8e65-02fc58cc1fc2,AD_Group1_test,1,F,xidule,shavuko,seg_Unattended,xidule_shavuko,xidule,single,AD_G1_LangA_female,12,6,F,Match,both
70,39,39,1,135,1,1,37,bdd55ca6-03b3-4a47-8e65-02fc58cc1fc2,AD_Group1_test,1,F,fanujo,tuheri,seg_Unattended,fanujo_tuheri,fanujo,single,AD_G1_LangA_female,12,6,F,Match,both
71,31,31,2,543,2,0,37,bdd55ca6-03b3-4a47-8e65-02fc58cc1fc2,AD_Group1_test,1,M,xonisu,kirewa,seg_Attended,xonisu_kirewa,kirewa,single,AD_G1_LangA_female,12,6,F,Mismatch,both
72,28,28,2,175,1,1,38,bdd55ca6-03b3-4a47-8e65-02fc58cc1fc2,AD_Group1_test,1,M,voluho,hoshife,seg_Attended,voluho_hoshife,hoshife,single,AD_G1_LangA_female,12,6,F,Mismatch,both
73,6,78,2,69,2,0,38,bdd55ca6-03b3-4a47-8e65-02fc58cc1fc2,AD_Group1_test,1,M,xidule,nisuda,rec,xidule_nisuda,nisuda,single,AD_G1_LangA_female,12,6,F,Mismatch,both
74,34,106,1,110,1,1,39,bdd55ca6-03b3-4a47-8e65-02fc58cc1fc2,AD_Group1_test,1,F,kirewa,pomasi,rec,kirewa_pomasi,kirewa,single,AD_G1_LangA_female,12,6,F,Match,both
75,36,108,1,1139,2,0,39,bdd55ca6-03b3-4a47-8e65-02fc58cc1fc2,AD_Group1_test,1,F,kirewa,xidule,rec,kirewa_xidule,kirewa,single,AD_G1_LangA_female,12,6,F,Match,both
76,28,100,2,81,1,1,40,bdd55ca6-03b3-4a47-8e65-02fc58cc1fc2,AD_Group1_test,1,M,pomasi,hoshife,rec,pomasi_hoshife,hoshife,single,AD_G1_LangA_female,12,6,F,Mismatch,both
77,12,84,1,35,1,1,41,bdd55ca6-03b3-4a47-8e65-02fc58cc1fc2,AD_Group1_test,1,M,pejuxo,xidule,rec,pejuxo_xidule,pejuxo,single,AD_G1_LangA_female,12,6,F,Mismatch,both
78,8,80,1,388,2,0,41,bdd55ca6-03b3-4a47-8e65-02fc58cc1fc2,AD_Group1_test,1,M,pejuxo,vukoza,rec,pejuxo_vukoza,pejuxo,single,AD_G1_LangA_female,12,6,F,Mismatch,both
79,33,105,2,18,2,0,41,bdd55ca6-03b3-4a47-8e65-02fc58cc1fc2,AD_Group1_test,1,M,herisha,kirewa,rec,herisha_kirewa,kirewa,single,AD_G1_LangA_female,12,6,F,Mismatch,both
80,19,91,2,324,2,0,41,bdd55ca6-03b3-4a47-8e65-02fc58cc1fc2,AD_Group1_test,1,M,fanujo,bavolu,rec,fanujo_bavolu,bavolu,single,AD_G1_LangA_female,12,6,F,Mismatch,both
81,21,93,2,264,2,0,41,bdd55ca6-03b3-4a47-8e65-02fc58cc1fc2,AD_Group1_test,1,M,herisha,bavolu,rec,herisha_bavolu,bavolu,single,AD_G1_LangA_female,12,6,F,Mismatch,both
82,15,87,1,259,2,0,41,bdd55ca6-03b3-4a47-8e65-02fc58cc1fc2,AD_Group1_test,1,M,zutami,herisha,rec,zutami_herisha,zutami,single,AD_G1_LangA_female,12,6,F,Mismatch,both
83,23,95,2,126,1,1,42,bdd55ca6-03b3-4a47-8e65-02fc58cc1fc2,AD_Group1_test,1,M,biwetu,bavolu,rec,biwetu_bavolu,bavolu,single,AD_G1_LangA_female,12,6,F,Mismatch,both
84,5,77,1,260,1,1,43,bdd55ca6-03b3-4a47-8e65-02fc58cc1fc2,AD_Group1_test,1,F,nisuda,biwetu,rec,nisuda_biwetu,nisuda,single,AD_G1_LangA_female,12,6,F,Match,both
85,14,86,2,53,2,0,43,bdd55ca6-03b3-4a47-8e65-02fc58cc1fc2,AD_Group1_test,1,F,vukoza,zutami,rec,vukoza_zutami,zutami,single,AD_G1_LangA_female,12,6,F,Match,both
86,9,81,2,519,2,0,43,bdd55ca6-03b3-4a47-8e65-02fc58cc1fc2,AD_Group1_test,1,F,herisha,pejuxo,rec,herisha_pejuxo,pejuxo,single,AD_G1_LangA_female,12,6,F,Match,both
87,3,75,1,571,2,0,43,bdd55ca6-03b3-4a47-8e65-02fc58cc1fc2,AD_Group1_test,1,F,nisuda,herisha,rec,nisuda_herisha,nisuda,single,AD_G1_LangA_female,12,6,F,Match,both
88,32,104,1,805,1,1,44,bdd55ca6-03b3-4a47-8e65-02fc58cc1fc2,AD_Group1_test,1,F,kirewa,vukoza,rec,kirewa_vukoza,kirewa,single,AD_G1_LangA_female,12,6,F,Match,both
89,11,83,2,526,2,0,44,bdd55ca6-03b3-4a47-8e65-02fc58cc1fc2,AD_Group1_test,1,F,biwetu,pejuxo,rec,biwetu_pejuxo,pejuxo,single,AD_G1_LangA_female,12,6,F,Match,both
90,13,85,1,415,2,0,44,bdd55ca6-03b3-4a47-8e65-02fc58cc1fc2,AD_Group1_test,1,M,zutami,fanujo,rec,zutami_fanujo,zutami,single,AD_G1_LangA_female,12,6,F,Mismatch,both
91,30,102,2,685,1,1,45,bdd55ca6-03b3-4a47-8e65-02fc58cc1fc2,AD_Group1_test,1,M,xidule,hoshife,rec,xidule_hoshife,hoshife,single,AD_G1_LangA_female,12,6,F,Mismatch,both
92,29,101,1,240,1,1,46,bdd55ca6-03b3-4a47-8e65-02fc58cc1fc2,AD_Group1_test,1,F,hoshife,biwetu,rec,hoshife_biwetu,hoshife,single,AD_G1_LangA_female,12,6,F,Match,both
93,27,99,1,1095,1,1,47,bdd55ca6-03b3-4a47-8e65-02fc58cc1fc2,AD_Group1_test,1,F,hoshife,herisha,rec,hoshife_herisha,hoshife,single,AD_G1_LangA_female,12,6,F,Match,both
94,2,74,2,722,2,0,47,bdd55ca6-03b3-4a47-8e65-02fc58cc1fc2,AD_Group1_test,1,M,vukoza,nisuda,rec,vukoza_nisuda,nisuda,single,AD_G1_LangA_female,12,6,F,Mismatch,both
95,20,92,1,182,2,0,47,bdd55ca6-03b3-4a47-8e65-02fc58cc1fc2,AD_Group1_test,1,F,bavolu,vukoza,rec,bavolu_vukoza,bavolu,single,AD_G1_LangA_female,12,6,F,Match,both
96,16,88,2,560,2,0,47,bdd55ca6-03b3-4a47-8e65-02fc58cc1fc2,AD_Group1_test,1,F,pomasi,zutami,rec,pomasi_zutami,zutami,single,AD_G1_LangA_female,12,6,F,Match,both
97,7,79,2,1005,1,1,48,bdd55ca6-03b3-4a47-8e65-02fc58cc1fc2,AD_Group1_test,1,F,fanujo,pejuxo,rec,fanujo_pejuxo,pejuxo,single,AD_G1_LangA_female,12,6,F,Match,both
98,22,94,1,257,1,1,49,bdd55ca6-03b3-4a47-8e65-02fc58cc1fc2,AD_Group1_test,1,F,bavolu,pomasi,rec,bavolu_pomasi,bavolu,single,AD_G1_LangA_female,12,6,F,Match,both
99,17,89,1,1440,2,0,49,bdd55ca6-03b3-4a47-8e65-02fc58cc1fc2,AD_Group1_test,1,M,zutami,biwetu,rec,zutami_biwetu,zutami,single,AD_G1_LangA_female,12,6,F,Mismatch,both
100,26,98,2,602,1,1,50,bdd55ca6-03b3-4a47-8e65-02fc58cc1fc2,AD_Group1_test,1,M,vukoza,hoshife,rec,vukoza_hoshife,hoshife,single,AD_G1_LangA_female,12,6,F,Mismatch,both
101,1,73,1,546,2,0,50,bdd55ca6-03b3-4a47-8e65-02fc58cc1fc2,AD_Group1_test,1,F,nisuda,fanujo,rec,nisuda_fanujo,nisuda,single,AD_G1_LangA_female,12,6,F,Match,both
102,24,96,1,78,1,1,51,bdd55ca6-03b3-4a47-8e65-02fc58cc1fc2,AD_Group1_test,1,F,bavolu,xidule,rec,bavolu_xidule,bavolu,single,AD_G1_LangA_female,12,6,F,Match,both
103,4,76,2,270,1,1,52,bdd55ca6-03b3-4a47-8e65-02fc58cc1fc2,AD_Group1_test,1,M,pomasi,nisuda,rec,pomasi_nisuda,nisuda,single,AD_G1_LangA_female,12,6,F,Mismatch,both
104,35,107,2,841,1,1,53,bdd55ca6-03b3-4a47-8e65-02fc58cc1fc2,AD_Group1_test,1,M,biwetu,kirewa,rec,biwetu_kirewa,kirewa,single,AD_G1_LangA_female,12,6,F,Mismatch,both
105,18,90,2,1599,2,0,53,bdd55ca6-03b3-4a47-8e65-02fc58cc1fc2,AD_Group1_test,1,F,xidule,zutami,rec,xidule_zutami,zutami,single,AD_G1_LangA_female,12,6,F,Match,both
106,10,82,1,151,1,1,54,bdd55ca6-03b3-4a47-8e65-02fc58cc1fc2,AD_Group1_test,1,M,pejuxo,pomasi,rec,pejuxo_pomasi,pejuxo,single,AD_G1_LangA_female,12,6,F,Mismatch,both
107,25,97,1,250,1,1,55,bdd55ca6-03b3-4a47-8e65-02fc58cc1fc2,AD_Group1_test,1,F,hoshife,fanujo,rec,hoshife_fanujo,hoshife,single,AD_G1_LangA_female,12,6,F,Match,both
108,31,103,2,133,2,0,55,bdd55ca6-03b3-4a47-8e65-02fc58cc1fc2,AD_Group1_test,1,M,fanujo,kirewa,rec,fanujo_kirewa,kirewa,single,AD_G1_LangA_female,12,6,F,Mismatch,both
1,64,64,2,1113,2,0,0,ff607bb6-4a89-4d11-bafb-f614974a97e3,AD_Group1_test,1,M,masihe,biwetu,seg_Unattended,masihe_biwetu,biwetu,single,AD_G1_LangA_female,12,5,F,Mismatch,both
2,49,49,1,170,2,0,0,ff607bb6-4a89-4d11-bafb-f614974a97e3,AD_Group1_test,1,M,herisha,zafanu,seg_Unattended,herisha_zafanu,herisha,single,AD_G1_LangA_female,12,5,F,Mismatch,both
3,57,57,2,292,2,0,0,ff607bb6-4a89-4d11-bafb-f614974a97e3,AD_Group1_test,1,M,tuheri,pomasi,seg_Unattended,tuheri_pomasi,pomasi,single,AD_G1_LangA_female,12,5,F,Mismatch,both
4,29,29,1,463,2,0,0,ff607bb6-4a89-4d11-bafb-f614974a97e3,AD_Group1_test,1,F,hoshife,shifeni,seg_Attended,hoshife_shifeni,hoshife,single,AD_G1_LangA_female,12,5,F,Match,both
5,44,44,1,525,1,1,1,ff607bb6-4a89-4d11-bafb-f614974a97e3,AD_Group1_test,1,M,vukoza,shavuko,seg_Unattended,vukoza_shavuko,vukoza,single,AD_G1_LangA_female,12,5,F,Mismatch,both
6,69,69,2,2339,1,1,2,ff607bb6-4a89-4d11-bafb-f614974a97e3,AD_Group1_test,1,M,tuheri,xidule,seg_Unattended,tuheri_xidule,xidule,single,AD_G1_LangA_female,12,5,F,Mismatch,both
8,4,4,2,1060,1,1,3,ff607bb6-4a89-4d11-bafb-f614974a97e3,AD_Group1_test,1,M,voluho,nisuda,seg_Attended,voluho_nisuda,nisuda,single,AD_G1_LangA_female,12,5,F,Mismatch,both
9,70,70,1,2165,2,0,3,ff607bb6-4a89-4d11-bafb-f614974a97e3,AD_Group1_test,1,F,xidule,masihe,seg_Unattended,xidule_masihe,xidule,single,AD_G1_LangA_female,12,5,F,Match,both
10,52,52,2,422,2,0,3,ff607bb6-4a89-4d11-bafb-f614974a97e3,AD_Group1_test,1,F,masihe,herisha,seg_Unattended,masihe_herisha,herisha,single,AD_G1_LangA_female,12,5,F,Match,both
11,7,7,2,277,2,0,3,ff607bb6-4a89-4d11-bafb-f614974a97e3,AD_Group1_test,1,F,xonisu,pejuxo,seg_Attended,xonisu_pejuxo,pejuxo,single,AD_G1_LangA_female,12,5,F,Match,both
12,14,14,2,214,1,1,4,ff607bb6-4a89-4d11-bafb-f614974a97e3,AD_Group1_test,1,F,mipeju,zutami,seg_Attended,mipeju_zutami,zutami,single,AD_G1_LangA_female,12,5,F,Match,both
13,8,8,1,474,1,1,5,ff607bb6-4a89-4d11-bafb-f614974a97e3,AD_Group1_test,1,M,pejuxo,mipeju,seg_Attended,pejuxo_mipeju,pejuxo,single,AD_G1_LangA_female,12,5,F,Mismatch,both
14,38,38,2,328,1,1,6,ff607bb6-4a89-4d11-bafb-f614974a97e3,AD_Group1_test,1,M,shavuko,fanujo,seg_Unattended,shavuko_fanujo,fanujo,single,AD_G1_LangA_female,12,5,F,Mismatch,both
15,2,2,2,301,2,0,6,ff607bb6-4a89-4d11-bafb-f614974a97e3,AD_Group1_test,1,M,mipeju,nisuda,seg_Attended,mipeju_nisuda,nisuda,single,AD_G1_LangA_female,12,5,F,Mismatch,both
16,23,23,2,414,2,0,6,ff607bb6-4a89-4d11-bafb-f614974a97e3,AD_Group1_test,1,M,shifeni,bavolu,seg_Attended,shifeni_bavolu,bavolu,single,AD_G1_LangA_female,12,5,F,Mismatch,both
17,21,21,2,135,2,0,6,ff607bb6-4a89-4d11-bafb-f614974a97e3,AD_Group1_test,1,M,luzuta,bavolu,seg_Attended,luzuta_bavolu,bavolu,single,AD_G1_LangA_female,12,5,F,Mismatch,both
18,65,65,1,409,1,1,7,ff607bb6-4a89-4d11-bafb-f614974a97e3,AD_Group1_test,1,F,biwetu,wetuxi,seg_Unattended,biwetu_wetuxi,biwetu,single,AD_G1_LangA_female,12,5,F,Match,both
19,1,1,1,724,2,0,7,ff607bb6-4a89-4d11-bafb-f614974a97e3,AD_Group1_test,1,F,nisuda,xonisu,seg_Attended,nisuda_xonisu,nisuda,single,AD_G1_LangA_female,12,5,F,Match,both
20,45,45,2,344,1,1,8,ff607bb6-4a89-4d11-bafb-f614974a97e3,AD_Group1_test,1,F,tuheri,vukoza,seg_Unattended,tuheri_vukoza,vukoza,single,AD_G1_LangA_female,12,5,F,Match,both
21,26,26,2,716,2,0,8,ff607bb6-4a89-4d11-bafb-f614974a97e3,AD_Group1_test,1,M,mipeju,hoshife,seg_Attended,mipeju_hoshife,hoshife,single,AD_G1_LangA_female,12,5,F,Mismatch,both
22,32,32,1,170,1,1,9,ff607bb6-4a89-4d11-bafb-f614974a97e3,AD_Group1_test,1,F,kirewa,mipeju,seg_Attended,kirewa_mipeju,kirewa,single,AD_G1_LangA_female,12,5,F,Match,both
23,31,31,2,93,2,0,9,ff607bb6-4a89-4d11-bafb-f614974a97e3,AD_Group1_test,1,M,xonisu,kirewa,seg_Attended,xonisu_kirewa,kirewa,single,AD_G1_LangA_female,12,5,F,Mismatch,both
24,59,59,2,1010,1,1,10,ff607bb6-4a89-4d11-bafb-f614974a97e3,AD_Group1_test,1,M,wetuxi,pomasi,seg_Unattended,wetuxi_pomasi,pomasi,single,AD_G1_LangA_female,12,5,F,Mismatch,both
25,55,55,2,90,2,0,10,ff607bb6-4a89-4d11-bafb-f614974a97e3,AD_Group1_test,1,M,zafanu,pomasi,seg_Unattended,zafanu_pomasi,pomasi,single,AD_G1_LangA_female,12,5,F,Mismatch,both
26,25,25,1,632,2,0,10,ff607bb6-4a89-4d11-bafb-f614974a97e3,AD_Group1_test,1,F,hoshife,xonisu,seg_Attended,hoshife_xonisu,hoshife,single,AD_G1_LangA_female,12,5,F,Match,both
27,13,13,1,467,1,1,11,ff607bb6-4a89-4d11-bafb-f614974a97e3,AD_Group1_test,1,M,zutami,xonisu,seg_Attended,zutami_xonisu,zutami,single,AD_G1_LangA_female,12,5,F,Mismatch,both
28,17,17,1,58,1,1,12,ff607bb6-4a89-4d11-bafb-f614974a97e3,AD_Group1_test,1,M,zutami,shifeni,seg_Attended,zutami_shifeni,zutami,single,AD_G1_LangA_female,12,5,F,Mismatch,both
29,27,27,1,267,2,0,12,ff607bb6-4a89-4d11-bafb-f614974a97e3,AD_Group1_test,1,F,hoshife,luzuta,seg_Attended,hoshife_luzuta,hoshife,single,AD_G1_LangA_female,12,5,F,Match,both
30,42,42,2,1958,2,0,12,ff607bb6-4a89-4d11-bafb-f614974a97e3,AD_Group1_test,1,M,dulepo,fanujo,seg_Unattended,dulepo_fanujo,fanujo,single,AD_G1_LangA_female,12,5,F,Mismatch,both
31,43,43,2,320,2,0,12,ff607bb6-4a89-4d11-bafb-f614974a97e3,AD_Group1_test,1,F,zafanu,vukoza,seg_Unattended,zafanu_vukoza,vukoza,single,AD_G1_LangA_female,12,5,F,Match,both
32,68,68,1,888,1,1,13,ff607bb6-4a89-4d11-bafb-f614974a97e3,AD_Group1_test,1,F,xidule,shavuko,seg_Unattended,xidule_shavuko,xidule,single,AD_G1_LangA_female,12,5,F,Match,both
33,5,5,1,310,1,1,14,ff607bb6-4a89-4d11-bafb-f614974a97e3,AD_Group1_test,1,F,nisuda,shifeni,seg_Attended,nisuda_shifeni,nisuda,single,AD_G1_LangA_female,12,5,F,Match,both
34,56,56,1,369,1,1,15,ff607bb6-4a89-4d11-bafb-f614974a97e3,AD_Group1_test,1,F,pomasi,shavuko,seg_Unattended,pomasi_shavuko,pomasi,single,AD_G1_LangA_female,12,5,F,Match,both
35,60,60,1,645,2,0,15,ff607bb6-4a89-4d11-bafb-f614974a97e3,AD_Group1_test,1,F,pomasi,dulepo,seg_Unattended,pomasi_dulepo,pomasi,single,AD_G1_LangA_female,12,5,F,Match,both
36,62,62,2,458,1,1,16,ff607bb6-4a89-4d11-bafb-f614974a97e3,AD_Group1_test,1,M,shavuko,biwetu,seg_Unattended,shavuko_biwetu,biwetu,single,AD_G1_LangA_female,12,5,F,Mismatch,both
37,48,48,1,459,1,1,17,ff607bb6-4a89-4d11-bafb-f614974a97e3,AD_Group1_test,1,M,vukoza,dulepo,seg_Unattended,vukoza_dulepo,vukoza,single,AD_G1_LangA_female,12,5,F,Mismatch,both
38,63,63,2,1788,2,0,17,ff607bb6-4a89-4d11-bafb-f614974a97e3,AD_Group1_test,1,F,biwetu,tuheri,seg_Unattended,biwetu_tuheri,biwetu,single,AD_G1_LangA_female,12,5,F,Match,both
39,6,6,2,365,1,1,18,ff607bb6-4a89-4d11-bafb-f614974a97e3,AD_Group1_test,1,M,rewani,nisuda,seg_Attended,rewani_nisuda,nisuda,single,AD_G1_LangA_female,12,5,F,Mismatch,both
40,10,10,1,1609,2,0,18,ff607bb6-4a89-4d11-bafb-f614974a97e3,AD_Group1_test,1,M,pejuxo,voluho,seg_Attended,pejuxo_voluho,pejuxo,single,AD_G1_LangA_female,12,5,F,Mismatch,both
41,30,30,2,378,1,1,19,ff607bb6-4a89-4d11-bafb-f614974a97e3,AD_Group1_test,1,M,rewani,hoshife,seg_Attended,rewani_hoshife,hoshife,single,AD_G1_LangA_female,12,5,F,Mismatch,both
42,22,22,1,642,2,0,19,ff607bb6-4a89-4d11-bafb-f614974a97e3,AD_Group1_test,1,F,bavolu,voluho,seg_Attended,bavolu_voluho,bavolu,single,AD_G1_LangA_female,12,5,F,Match,both
43,72,72,1,278,2,0,19,ff607bb6-4a89-4d11-bafb-f614974a97e3,AD_Group1_test,1,F,xidule,dulepo,seg_Unattended,xidule_dulepo,xidule,single,AD_G1_LangA_female,12,5,F,Match,both
44,40,40,2,275,2,0,19,ff607bb6-4a89-4d11-bafb-f614974a97e3,AD_Group1_test,1,M,masihe,fanujo,seg_Unattended,masihe_fanujo,fanujo,single,AD_G1_LangA_female,12,5,F,Mismatch,both
45,24,24,1,1111,1,1,20,ff607bb6-4a89-4d11-bafb-f614974a97e3,AD_Group1_test,1,F,bavolu,rewani,seg_Attended,bavolu_rewani,bavolu,single,AD_G1_LangA_female,12,5,F,Match,both
46,19,19,2,1766,1,1,21,ff607bb6-4a89-4d11-bafb-f614974a97e3,AD_Group1_test,1,M,xonisu,bavolu,seg_Attended,xonisu_bavolu,bavolu,single,AD_G1_LangA_female,12,5,F,Mismatch,both
47,15,15,1,4034,2,0,21,ff607bb6-4a89-4d11-bafb-f614974a97e3,AD_Group1_test,1,M,zutami,luzuta,seg_Attended,zutami_luzuta,zutami,single,AD_G1_LangA_female,12,5,F,Mismatch,both
48,58,58,1,203,1,1,22,ff607bb6-4a89-4d11-bafb-f614974a97e3,AD_Group1_test,1,F,pomasi,masihe,seg_Unattended,pomasi_masihe,pomasi,single,AD_G1_LangA_female,12,5,F,Match,both
49,20,20,1,395,2,0,22,ff607bb6-4a89-4d11-bafb-f614974a97e3,AD_Group1_test,1,F,bavolu,mipeju,seg_Attended,bavolu_mipeju,bavolu,single,AD_G1_LangA_female,12,5,F,Match,both
50,47,47,2,454,2,0,22,ff607bb6-4a89-4d11-bafb-f614974a97e3,AD_Group1_test,1,F,wetuxi,vukoza,seg_Unattended,wetuxi_vukoza,vukoza,single,AD_G1_LangA_female,12,5,F,Match,both
51,50,50,2,437,2,0,22,ff607bb6-4a89-4d11-bafb-f614974a97e3,AD_Group1_test,1,F,shavuko,herisha,seg_Unattended,shavuko_herisha,herisha,single,AD_G1_LangA_female,12,5,F,Match,both
52,71,71,2,337,1,1,23,ff607bb6-4a89-4d11-bafb-f614974a97e3,AD_Group1_test,1,F,wetuxi,xidule,seg_Unattended,wetuxi_xidule,xidule,single,AD_G1_LangA_female,12,5,F,Match,both
53,53,53,1,307,2,0,23,ff607bb6-4a89-4d11-bafb-f614974a97e3,AD_Group1_test,1,M,herisha,wetuxi,seg_Unattended,herisha_wetuxi,herisha,single,AD_G1_LangA_female,12,5,F,Mismatch,both
54,61,61,1,2077,2,0,23,ff607bb6-4a89-4d11-bafb-f614974a97e3,AD_Group1_test,1,F,biwetu,zafanu,seg_Unattended,biwetu_zafanu,biwetu,single,AD_G1_LangA_female,12,5,F,Match,both
55,37,37,1,163,1,1,24,ff607bb6-4a89-4d11-bafb-f614974a97e3,AD_Group1_test,1,F,fanujo,zafanu,seg_Unattended,fanujo_zafanu,fanujo,single,AD_G1_LangA_female,12,5,F,Match,both
56,36,36,1,278,1,1,25,ff607bb6-4a89-4d11-bafb-f614974a97e3,AD_Group1_test,1,F,kirewa,rewani,seg_Attended,kirewa_rewani,kirewa,single,AD_G1_LangA_female,12,5,F,Match,both
57,66,66,2,280,1,1,26,ff607bb6-4a89-4d11-bafb-f614974a97e3,AD_Group1_test,1,M,dulepo,biwetu,seg_Unattended,dulepo_biwetu,biwetu,single,AD_G1_LangA_female,12,5,F,Mismatch,both
58,46,46,1,235,2,0,26,ff607bb6-4a89-4d11-bafb-f614974a97e3,AD_Group1_test,1,M,vukoza,masihe,seg_Unattended,vukoza_masihe,vukoza,single,AD_G1_LangA_female,12,5,F,Mismatch,both
59,54,54,2,576,1,1,27,ff607bb6-4a89-4d11-bafb-f614974a97e3,AD_Group1_test,1,F,dulepo,herisha,seg_Unattended,dulepo_herisha,herisha,single,AD_G1_LangA_female,12,5,F,Match,both
60,9,9,2,305,2,0,27,ff607bb6-4a89-4d11-bafb-f614974a97e3,AD_Group1_test,1,F,luzuta,pejuxo,seg_Attended,luzuta_pejuxo,pejuxo,single,AD_G1_LangA_female,12,5,F,Match,both
61,16,16,2,355,1,1,28,ff607bb6-4a89-4d11-bafb-f614974a97e3,AD_Group1_test,1,F,voluho,zutami,seg_Attended,voluho_zutami,zutami,single,AD_G1_LangA_female,12,5,F,Match,both
62,33,33,2,137,2,0,28,ff607bb6-4a89-4d11-bafb-f614974a97e3,AD_Group1_test,1,M,luzuta,kirewa,seg_Attended,luzuta_kirewa,kirewa,single,AD_G1_LangA_female,12,5,F,Mismatch,both
63,18,18,2,465,2,0,28,ff607bb6-4a89-4d11-bafb-f614974a97e3,AD_Group1_test,1,F,rewani,zutami,seg_Attended,rewani_zutami,zutami,single,AD_G1_LangA_female,12,5,F,Match,both
64,28,28,2,131,2,0,28,ff607bb6-4a89-4d11-bafb-f614974a97e3,AD_Group1_test,1,M,voluho,hoshife,seg_Attended,voluho_hoshife,hoshife,single,AD_G1_LangA_female,12,5,F,Mismatch,both
65,3,3,1,161,1,1,29,ff607bb6-4a89-4d11-bafb-f614974a97e3,AD_Group1_test,1,F,nisuda,luzuta,seg_Attended,nisuda_luzuta,nisuda,single,AD_G1_LangA_female,12,5,F,Match,both
66,11,11,2,1187,2,0,29,ff607bb6-4a89-4d11-bafb-f614974a97e3,AD_Group1_test,1,F,shifeni,pejuxo,seg_Attended,shifeni_pejuxo,pejuxo,single,AD_G1_LangA_female,12,5,F,Match,both
67,39,39,1,250,2,0,29,ff607bb6-4a89-4d11-bafb-f614974a97e3,AD_Group1_test,1,F,fanujo,tuheri,seg_Unattended,fanujo_tuheri,fanujo,single,AD_G1_LangA_female,12,5,F,Match,both
68,41,41,1,1516,1,1,30,ff607bb6-4a89-4d11-bafb-f614974a97e3,AD_Group1_test,1,F,fanujo,wetuxi,seg_Unattended,fanujo_wetuxi,fanujo,single,AD_G1_LangA_female,12,5,F,Match,both
69,12,12,1,1020,1,1,31,ff607bb6-4a89-4d11-bafb-f614974a97e3,AD_Group1_test,1,M,pejuxo,rewani,seg_Attended,pejuxo_rewani,pejuxo,single,AD_G1_LangA_female,12,5,F,Mismatch,both
70,34,34,1,1328,2,0,31,ff607bb6-4a89-4d11-bafb-f614974a97e3,AD_Group1_test,1,F,kirewa,voluho,seg_Attended,kirewa_voluho,kirewa,single,AD_G1_LangA_female,12,5,F,Match,both
71,67,67,2,181,2,0,31,ff607bb6-4a89-4d11-bafb-f614974a97e3,AD_Group1_test,1,M,zafanu,xidule,seg_Unattended,zafanu_xidule,xidule,single,AD_G1_LangA_female,12,5,F,Mismatch,both
72,35,35,2,482,1,1,32,ff607bb6-4a89-4d11-bafb-f614974a97e3,AD_Group1_test,1,M,shifeni,kirewa,seg_Attended,shifeni_kirewa,kirewa,single,AD_G1_LangA_female,12,5,F,Mismatch,both
73,2,74,2,325,2,0,32,ff607bb6-4a89-4d11-bafb-f614974a97e3,AD_Group1_test,1,M,vukoza,nisuda,rec,vukoza_nisuda,nisuda,single,AD_G1_LangA_female,12,5,F,Mismatch,both
74,33,105,2,858,2,0,32,ff607bb6-4a89-4d11-bafb-f614974a97e3,AD_Group1_test,1,M,herisha,kirewa,rec,herisha_kirewa,kirewa,single,AD_G1_LangA_female,12,5,F,Mismatch,both
75,14,86,2,369,2,0,32,ff607bb6-4a89-4d11-bafb-f614974a97e3,AD_Group1_test,1,F,vukoza,zutami,rec,vukoza_zutami,zutami,single,AD_G1_LangA_female,12,5,F,Match,both
76,5,77,1,681,1,1,33,ff607bb6-4a89-4d11-bafb-f614974a97e3,AD_Group1_test,1,F,nisuda,biwetu,rec,nisuda_biwetu,nisuda,single,AD_G1_LangA_female,12,5,F,Match,both
77,34,106,1,1231,2,0,33,ff607bb6-4a89-4d11-bafb-f614974a97e3,AD_Group1_test,1,F,kirewa,pomasi,rec,kirewa_pomasi,kirewa,single,AD_G1_LangA_female,12,5,F,Match,both
78,22,94,1,345,1,1,34,ff607bb6-4a89-4d11-bafb-f614974a97e3,AD_Group1_test,1,F,bavolu,pomasi,rec,bavolu_pomasi,bavolu,single,AD_G1_LangA_female,12,5,F,Match,both
79,4,76,2,340,1,1,35,ff607bb6-4a89-4d11-bafb-f614974a97e3,AD_Group1_test,1,M,pomasi,nisuda,rec,pomasi_nisuda,nisuda,single,AD_G1_LangA_female,12,5,F,Mismatch,both
80,28,100,2,592,2,0,35,ff607bb6-4a89-4d11-bafb-f614974a97e3,AD_Group1_test,1,M,pomasi,hoshife,rec,pomasi_hoshife,hoshife,single,AD_G1_LangA_female,12,5,F,Mismatch,both
81,15,87,1,1125,2,0,35,ff607bb6-4a89-4d11-bafb-f614974a97e3,AD_Group1_test,1,M,zutami,herisha,rec,zutami_herisha,zutami,single,AD_G1_LangA_female,12,5,F,Mismatch,both
82,7,79,2,216,2,0,35,ff607bb6-4a89-4d11-bafb-f614974a97e3,AD_Group1_test,1,F,fanujo,pejuxo,rec,fanujo_pejuxo,pejuxo,single,AD_G1_LangA_female,12,5,F,Match,both
83,11,83,2,356,2,0,35,ff607bb6-4a89-4d11-bafb-f614974a97e3,AD_Group1_test,1,F,biwetu,pejuxo,rec,biwetu_pejuxo,pejuxo,single,AD_G1_LangA_female,12,5,F,Match,both
84,1,73,1,791,2,0,35,ff607bb6-4a89-4d11-bafb-f614974a97e3,AD_Group1_test,1,F,nisuda,fanujo,rec,nisuda_fanujo,nisuda,single,AD_G1_LangA_female,12,5,F,Match,both
85,23,95,2,282,1,1,36,ff607bb6-4a89-4d11-bafb-f614974a97e3,AD_Group1_test,1,M,biwetu,bavolu,rec,biwetu_bavolu,bavolu,single,AD_G1_LangA_female,12,5,F,Mismatch,both
86,6,78,2,2140,1,1,37,ff607bb6-4a89-4d11-bafb-f614974a97e3,AD_Group1_test,1,M,xidule,nisuda,rec,xidule_nisuda,nisuda,single,AD_G1_LangA_female,12,5,F,Mismatch,both
87,13,85,1,1340,1,1,38,ff607bb6-4a89-4d11-bafb-f614974a97e3,AD_Group1_test,1,M,zutami,fanujo,rec,zutami_fanujo,zutami,single,AD_G1_LangA_female,12,5,F,Mismatch,both
88,29,101,1,442,2,0,38,ff607bb6-4a89-4d11-bafb-f614974a97e3,AD_Group1_test,1,F,hoshife,biwetu,rec,hoshife_biwetu,hoshife,single,AD_G1_LangA_female,12,5,F,Match,both
89,27,99,1,1673,1,1,39,ff607bb6-4a89-4d11-bafb-f614974a97e3,AD_Group1_test,1,F,hoshife,herisha,rec,hoshife_herisha,hoshife,single,AD_G1_LangA_female,12,5,F,Match,both
90,12,84,1,936,1,1,40,ff607bb6-4a89-4d11-bafb-f614974a97e3,AD_Group1_test,1,M,pejuxo,xidule,rec,pejuxo_xidule,pejuxo,single,AD_G1_LangA_female,12,5,F,Mismatch,both
91,25,97,1,936,2,0,40,ff607bb6-4a89-4d11-bafb-f614974a97e3,AD_Group1_test,1,F,hoshife,fanujo,rec,hoshife_fanujo,hoshife,single,AD_G1_LangA_female,12,5,F,Match,both
92,17,89,1,1577,1,1,41,ff607bb6-4a89-4d11-bafb-f614974a97e3,AD_Group1_test,1,M,zutami,biwetu,rec,zutami_biwetu,zutami,single,AD_G1_LangA_female,12,5,F,Mismatch,both
93,35,107,2,333,1,1,42,ff607bb6-4a89-4d11-bafb-f614974a97e3,AD_Group1_test,1,M,biwetu,kirewa,rec,biwetu_kirewa,kirewa,single,AD_G1_LangA_female,12,5,F,Mismatch,both
94,9,81,2,1049,1,1,43,ff607bb6-4a89-4d11-bafb-f614974a97e3,AD_Group1_test,1,F,herisha,pejuxo,rec,herisha_pejuxo,pejuxo,single,AD_G1_LangA_female,12,5,F,Match,both
95,31,103,2,457,2,0,43,ff607bb6-4a89-4d11-bafb-f614974a97e3,AD_Group1_test,1,M,fanujo,kirewa,rec,fanujo_kirewa,kirewa,single,AD_G1_LangA_female,12,5,F,Mismatch,both
96,26,98,2,267,2,0,43,ff607bb6-4a89-4d11-bafb-f614974a97e3,AD_Group1_test,1,M,vukoza,hoshife,rec,vukoza_hoshife,hoshife,single,AD_G1_LangA_female,12,5,F,Mismatch,both
97,16,88,2,263,2,0,43,ff607bb6-4a89-4d11-bafb-f614974a97e3,AD_Group1_test,1,F,pomasi,zutami,rec,pomasi_zutami,zutami,single,AD_G1_LangA_female,12,5,F,Match,both
98,24,96,1,346,1,1,44,ff607bb6-4a89-4d11-bafb-f614974a97e3,AD_Group1_test,1,F,bavolu,xidule,rec,bavolu_xidule,bavolu,single,AD_G1_LangA_female,12,5,F,Match,both
99,30,102,2,239,1,1,45,ff607bb6-4a89-4d11-bafb-f614974a97e3,AD_Group1_test,1,M,xidule,hoshife,rec,xidule_hoshife,hoshife,single,AD_G1_LangA_female,12,5,F,Mismatch,both
100,3,75,1,381,1,1,46,ff607bb6-4a89-4d11-bafb-f614974a97e3,AD_Group1_test,1,F,nisuda,herisha,rec,nisuda_herisha,nisuda,single,AD_G1_LangA_female,12,5,F,Match,both
101,21,93,2,800,1,1,47,ff607bb6-4a89-4d11-bafb-f614974a97e3,AD_Group1_test,1,M,herisha,bavolu,rec,herisha_bavolu,bavolu,single,AD_G1_LangA_female,12,5,F,Mismatch,both
102,10,82,1,472,1,1,48,ff607bb6-4a89-4d11-bafb-f614974a97e3,AD_Group1_test,1,M,pejuxo,pomasi,rec,pejuxo_pomasi,pejuxo,single,AD_G1_LangA_female,12,5,F,Mismatch,both
103,36,108,1,226,1,1,49,ff607bb6-4a89-4d11-bafb-f614974a97e3,AD_Group1_test,1,F,kirewa,xidule,rec,kirewa_xidule,kirewa,single,AD_G1_LangA_female,12,5,F,Match,both
104,18,90,2,1157,2,0,49,ff607bb6-4a89-4d11-bafb-f614974a97e3,AD_Group1_test,1,F,xidule,zutami,rec,xidule_zutami,zutami,single,AD_G1_LangA_female,12,5,F,Match,both
105,19,91,2,583,1,1,50,ff607bb6-4a89-4d11-bafb-f614974a97e3,AD_Group1_test,1,M,fanujo,bavolu,rec,fanujo_bavolu,bavolu,single,AD_G1_LangA_female,12,5,F,Mismatch,both
106,32,104,1,1981,1,1,51,ff607bb6-4a89-4d11-bafb-f614974a97e3,AD_Group1_test,1,F,kirewa,vukoza,rec,kirewa_vukoza,kirewa,single,AD_G1_LangA_female,12,5,F,Match,both
107,20,92,1,231,1,1,52,ff607bb6-4a89-4d11-bafb-f614974a97e3,AD_Group1_test,1,F,bavolu,vukoza,rec,bavolu_vukoza,bavolu,single,AD_G1_LangA_female,12,5,F,Match,both
108,8,80,1,597,2,0,52,ff607bb6-4a89-4d11-bafb-f614974a97e3,AD_Group1_test,1,M,pejuxo,vukoza,rec,pejuxo_vukoza,pejuxo,single,AD_G1_LangA_female,12,5,F,Mismatch,both
1,34,34,1,2607,1,1,1,b67d1aa1-21d3-4ee2-8b35-72581ad21e78,AD_Group1_test,1,F,kirewa,voluho,seg_Attended,kirewa_voluho,kirewa,single,AD_G1_LangA_female,12,1,F,Match,both
2,62,62,2,615,1,1,2,b67d1aa1-21d3-4ee2-8b35-72581ad21e78,AD_Group1_test,1,M,shavuko,biwetu,seg_Unattended,shavuko_biwetu,biwetu,single,AD_G1_LangA_female,12,1,F,Mismatch,both
3,12,12,1,1449,2,0,2,b67d1aa1-21d3-4ee2-8b35-72581ad21e78,AD_Group1_test,1,M,pejuxo,rewani,seg_Attended,pejuxo_rewani,pejuxo,single,AD_G1_LangA_female,12,1,F,Mismatch,both
4,6,6,2,389,2,0,2,b67d1aa1-21d3-4ee2-8b35-72581ad21e78,AD_Group1_test,1,M,rewani,nisuda,seg_Attended,rewani_nisuda,nisuda,single,AD_G1_LangA_female,12,1,F,Mismatch,both
5,9,9,2,439,1,1,3,b67d1aa1-21d3-4ee2-8b35-72581ad21e78,AD_Group1_test,1,F,luzuta,pejuxo,seg_Attended,luzuta_pejuxo,pejuxo,single,AD_G1_LangA_female,12,1,F,Match,both
6,17,17,1,535,1,1,4,b67d1aa1-21d3-4ee2-8b35-72581ad21e78,AD_Group1_test,1,M,zutami,shifeni,seg_Attended,zutami_shifeni,zutami,single,AD_G1_LangA_female,12,1,F,Mismatch,both
7,25,25,1,304,2,0,4,b67d1aa1-21d3-4ee2-8b35-72581ad21e78,AD_Group1_test,1,F,hoshife,xonisu,seg_Attended,hoshife_xonisu,hoshife,single,AD_G1_LangA_female,12,1,F,Match,both
8,28,28,2,628,2,0,4,b67d1aa1-21d3-4ee2-8b35-72581ad21e78,AD_Group1_test,1,M,voluho,hoshife,seg_Attended,voluho_hoshife,hoshife,single,AD_G1_LangA_female,12,1,F,Mismatch,both
9,50,50,2,338,2,0,4,b67d1aa1-21d3-4ee2-8b35-72581ad21e78,AD_Group1_test,1,F,shavuko,herisha,seg_Unattended,shavuko_herisha,herisha,single,AD_G1_LangA_female,12,1,F,Match,both
10,22,22,1,444,1,1,5,b67d1aa1-21d3-4ee2-8b35-72581ad21e78,AD_Group1_test,1,F,bavolu,voluho,seg_Attended,bavolu_voluho,bavolu,single,AD_G1_LangA_female,12,1,F,Match,both
11,21,21,2,555,1,1,6,b67d1aa1-21d3-4ee2-8b35-72581ad21e78,AD_Group1_test,1,M,luzuta,bavolu,seg_Attended,luzuta_bavolu,bavolu,single,AD_G1_LangA_female,12,1,F,Mismatch,both
12,52,52,2,1105,2,0,6,b67d1aa1-21d3-4ee2-8b35-72581ad21e78,AD_Group1_test,1,F,masihe,herisha,seg_Unattended,masihe_herisha,herisha,single,AD_G1_LangA_female,12,1,F,Match,both
13,11,11,2,439,1,1,7,b67d1aa1-21d3-4ee2-8b35-72581ad21e78,AD_Group1_test,1,F,shifeni,pejuxo,seg_Attended,shifeni_pejuxo,pejuxo,single,AD_G1_LangA_female,12,1,F,Match,both
14,54,54,2,977,2,0,7,b67d1aa1-21d3-4ee2-8b35-72581ad21e78,AD_Group1_test,1,F,dulepo,herisha,seg_Unattended,dulepo_herisha,herisha,single,AD_G1_LangA_female,12,1,F,Match,both
15,70,70,1,389,1,1,8,b67d1aa1-21d3-4ee2-8b35-72581ad21e78,AD_Group1_test,1,F,xidule,masihe,seg_Unattended,xidule_masihe,xidule,single,AD_G1_LangA_female,12,1,F,Match,both
16,57,57,2,622,1,1,9,b67d1aa1-21d3-4ee2-8b35-72581ad21e78,AD_Group1_test,1,M,tuheri,pomasi,seg_Unattended,tuheri_pomasi,pomasi,single,AD_G1_LangA_female,12,1,F,Mismatch,both
17,3,3,1,267,1,1,10,b67d1aa1-21d3-4ee2-8b35-72581ad21e78,AD_Group1_test,1,F,nisuda,luzuta,seg_Attended,nisuda_luzuta,nisuda,single,AD_G1_LangA_female,12,1,F,Match,both
18,2,2,2,1384,2,0,10,b67d1aa1-21d3-4ee2-8b35-72581ad21e78,AD_Group1_test,1,M,mipeju,nisuda,seg_Attended,mipeju_nisuda,nisuda,single,AD_G1_LangA_female,12,1,F,Mismatch,both
19,51,51,1,302,2,0,10,b67d1aa1-21d3-4ee2-8b35-72581ad21e78,AD_Group1_test,1,M,herisha,tuheri,seg_Unattended,herisha_tuheri,herisha,single,AD_G1_LangA_female,12,1,F,Mismatch,both
20,30,30,2,346,1,1,11,b67d1aa1-21d3-4ee2-8b35-72581ad21e78,AD_Group1_test,1,M,rewani,hoshife,seg_Attended,rewani_hoshife,hoshife,single,AD_G1_LangA_female,12,1,F,Mismatch,both
21,59,59,2,285,1,1,12,b67d1aa1-21d3-4ee2-8b35-72581ad21e78,AD_Group1_test,1,M,wetuxi,pomasi,seg_Unattended,wetuxi_pomasi,pomasi,single,AD_G1_LangA_female,12,1,F,Mismatch,both
22,36,36,1,256,1,1,13,b67d1aa1-21d3-4ee2-8b35-72581ad21e78,AD_Group1_test,1,F,kirewa,rewani,seg_Attended,kirewa_rewani,kirewa,single,AD_G1_LangA_female,12,1,F,Match,both
23,29,29,1,328,2,0,13,b67d1aa1-21d3-4ee2-8b35-72581ad21e78,AD_Group1_test,1,F,hoshife,shifeni,seg_Attended,hoshife_shifeni,hoshife,single,AD_G1_LangA_female,12,1,F,Match,both
24,10,10,1,310,2,0,13,b67d1aa1-21d3-4ee2-8b35-72581ad21e78,AD_Group1_test,1,M,pejuxo,voluho,seg_Attended,pejuxo_voluho,pejuxo,single,AD_G1_LangA_female,12,1,F,Mismatch,both
25,58,58,1,352,1,1,14,b67d1aa1-21d3-4ee2-8b35-72581ad21e78,AD_Group1_test,1,F,pomasi,masihe,seg_Unattended,pomasi_masihe,pomasi,single,AD_G1_LangA_female,12,1,F,Match,both
26,65,65,1,478,1,1,15,b67d1aa1-21d3-4ee2-8b35-72581ad21e78,AD_Group1_test,1,F,biwetu,wetuxi,seg_Unattended,biwetu_wetuxi,biwetu,single,AD_G1_LangA_female,12,1,F,Match,both
27,72,72,1,425,1,1,16,b67d1aa1-21d3-4ee2-8b35-72581ad21e78,AD_Group1_test,1,F,xidule,dulepo,seg_Unattended,xidule_dulepo,xidule,single,AD_G1_LangA_female,12,1,F,Match,both
28,46,46,1,354,2,0,16,b67d1aa1-21d3-4ee2-8b35-72581ad21e78,AD_Group1_test,1,M,vukoza,masihe,seg_Unattended,vukoza_masihe,vukoza,single,AD_G1_LangA_female,12,1,F,Mismatch,both
29,23,23,2,739,1,1,17,b67d1aa1-21d3-4ee2-8b35-72581ad21e78,AD_Group1_test,1,M,shifeni,bavolu,seg_Attended,shifeni_bavolu,bavolu,single,AD_G1_LangA_female,12,1,F,Mismatch,both
30,14,14,2,628,2,0,17,b67d1aa1-21d3-4ee2-8b35-72581ad21e78,AD_Group1_test,1,F,mipeju,zutami,seg_Attended,mipeju_zutami,zutami,single,AD_G1_LangA_female,12,1,F,Match,both
31,32,32,1,298,1,1,18,b67d1aa1-21d3-4ee2-8b35-72581ad21e78,AD_Group1_test,1,F,kirewa,mipeju,seg_Attended,kirewa_mipeju,kirewa,single,AD_G1_LangA_female,12,1,F,Match,both
32,47,47,2,340,2,0,18,b67d1aa1-21d3-4ee2-8b35-72581ad21e78,AD_Group1_test,1,F,wetuxi,vukoza,seg_Unattended,wetuxi_vukoza,vukoza,single,AD_G1_LangA_female,12,1,F,Match,both
33,43,43,2,371,2,0,18,b67d1aa1-21d3-4ee2-8b35-72581ad21e78,AD_Group1_test,1,F,zafanu,vukoza,seg_Unattended,zafanu_vukoza,vukoza,single,AD_G1_LangA_female,12,1,F,Match,both
34,19,19,2,373,1,1,19,b67d1aa1-21d3-4ee2-8b35-72581ad21e78,AD_Group1_test,1,M,xonisu,bavolu,seg_Attended,xonisu_bavolu,bavolu,single,AD_G1_LangA_female,12,1,F,Mismatch,both
35,42,42,2,337,1,1,20,b67d1aa1-21d3-4ee2-8b35-72581ad21e78,AD_Group1_test,1,M,dulepo,fanujo,seg_Unattended,dulepo_fanujo,fanujo,single,AD_G1_LangA_female,12,1,F,Mismatch,both
36,37,37,1,358,1,1,21,b67d1aa1-21d3-4ee2-8b35-72581ad21e78,AD_Group1_test,1,F,fanujo,zafanu,seg_Unattended,fanujo_zafanu,fanujo,single,AD_G1_LangA_female,12,1,F,Match,both
37,49,49,1,332,1,1,22,b67d1aa1-21d3-4ee2-8b35-72581ad21e78,AD_Group1_test,1,M,herisha,zafanu,seg_Unattended,herisha_zafanu,herisha,single,AD_G1_LangA_female,12,1,F,Mismatch,both
38,61,61,1,580,1,1,23,b67d1aa1-21d3-4ee2-8b35-72581ad21e78,AD_Group1_test,1,F,biwetu,zafanu,seg_Unattended,biwetu_zafanu,biwetu,single,AD_G1_LangA_female,12,1,F,Match,both
39,71,71,2,4390,2,0,23,b67d1aa1-21d3-4ee2-8b35-72581ad21e78,AD_Group1_test,1,F,wetuxi,xidule,seg_Unattended,wetuxi_xidule,xidule,single,AD_G1_LangA_female,12,1,F,Match,both
40,67,67,2,698,1,1,24,b67d1aa1-21d3-4ee2-8b35-72581ad21e78,AD_Group1_test,1,M,zafanu,xidule,seg_Unattended,zafanu_xidule,xidule,single,AD_G1_LangA_female,12,1,F,Mismatch,both
41,33,33,2,342,1,1,25,b67d1aa1-21d3-4ee2-8b35-72581ad21e78,AD_Group1_test,1,M,luzuta,kirewa,seg_Attended,luzuta_kirewa,kirewa,single,AD_G1_LangA_female,12,1,F,Mismatch,both
42,13,13,1,1977,1,1,26,b67d1aa1-21d3-4ee2-8b35-72581ad21e78,AD_Group1_test,1,M,zutami,xonisu,seg_Attended,zutami_xonisu,zutami,single,AD_G1_LangA_female,12,1,F,Mismatch,both
43,64,64,2,930,1,1,27,b67d1aa1-21d3-4ee2-8b35-72581ad21e78,AD_Group1_test,1,M,masihe,biwetu,seg_Unattended,masihe_biwetu,biwetu,single,AD_G1_LangA_female,12,1,F,Mismatch,both
44,7,7,2,444,2,0,27,b67d1aa1-21d3-4ee2-8b35-72581ad21e78,AD_Group1_test,1,F,xonisu,pejuxo,seg_Attended,xonisu_pejuxo,pejuxo,single,AD_G1_LangA_female,12,1,F,Match,both
45,56,56,1,1101,1,1,28,b67d1aa1-21d3-4ee2-8b35-72581ad21e78,AD_Group1_test,1,F,pomasi,shavuko,seg_Unattended,pomasi_shavuko,pomasi,single,AD_G1_LangA_female,12,1,F,Match,both
46,35,35,2,422,1,1,29,b67d1aa1-21d3-4ee2-8b35-72581ad21e78,AD_Group1_test,1,M,shifeni,kirewa,seg_Attended,shifeni_kirewa,kirewa,single,AD_G1_LangA_female,12,1,F,Mismatch,both
47,1,1,1,617,2,0,29,b67d1aa1-21d3-4ee2-8b35-72581ad21e78,AD_Group1_test,1,F,nisuda,xonisu,seg_Attended,nisuda_xonisu,nisuda,single,AD_G1_LangA_female,12,1,F,Match,both
